sequence,AccelerometerX,AccelerometerY,AccelerometerZ,GyroscopeX,GyroscopeY,GyroscopeZ
0,4.0,-990.0,33.0,-93.0,-243.0,-5.0
1,7.0,-998.0,44.0,-63.0,-183.0,-39.0
2,-13.0,-998.0,46.0,-30.0,-130.0,-70.0
3,-36.0,-967.0,59.0,0.0,-94.0,-86.0
4,-59.0,-925.0,63.0,9.0,-71.0,-85.0
5,-59.0,-892.0,70.0,-10.0,-62.0,-76.0
6,-52.0,-913.0,80.0,-45.0,-52.0,-69.0
7,-49.0,-998.0,81.0,-56.0,-36.0,-50.0
8,-45.0,-1025.0,85.0,-10.0,-24.0,-27.0
9,-20.0,-1008.0,93.0,55.0,-13.0,-41.0
10,27.0,-1017.0,103.0,107.0,4.0,-89.0
11,-371.0,-1303.0,344.0,529.0,-5.0,-328.0
12,-163.0,-928.0,39.0,485.0,-27.0,-33.0
13,-146.0,-990.0,8.0,400.0,-40.0,7.0
14,-153.0,-990.0,-3.0,385.0,-56.0,49.0
15,-121.0,-908.0,31.0,385.0,-69.0,76.0
16,-178.0,-871.0,85.0,329.0,-41.0,84.0
17,-193.0,-900.0,63.0,237.0,-33.0,39.0
18,-126.0,-944.0,30.0,171.0,-43.0,6.0
19,-167.0,-946.0,30.0,147.0,-31.0,21.0
20,-168.0,-945.0,38.0,125.0,-29.0,7.0
21,-163.0,-975.0,17.0,96.0,-29.0,-11.0
22,-172.0,-983.0,18.0,86.0,-30.0,-26.0
23,-156.0,-1006.0,3.0,72.0,-35.0,-50.0
24,-151.0,-982.0,20.0,49.0,-39.0,10.0
25,-155.0,-980.0,28.0,84.0,-18.0,96.0
26,-159.0,-989.0,25.0,86.0,-17.0,100.0
27,-160.0,-993.0,21.0,92.0,-17.0,102.0
28,-161.0,-993.0,24.0,100.0,-18.0,104.0
29,-169.0,-992.0,27.0,106.0,-19.0,105.0
30,-174.0,-991.0,28.0,107.0,-21.0,100.0
31,-176.0,-993.0,30.0,105.0,-26.0,93.0
32,-174.0,-993.0,28.0,104.0,-30.0,87.0
33,-171.0,-993.0,29.0,107.0,-34.0,83.0
34,-174.0,-990.0,32.0,107.0,-38.0,83.0
35,-173.0,-1009.0,25.0,104.0,-42.0,78.0
36,-349.0,-1819.0,-204.0,1994.0,-108.0,-493.0
37,-574.0,13.0,-934.0,652.0,1676.0,779.0
38,-618.0,63.0,-913.0,324.0,1455.0,726.0
39,-585.0,-10.0,-863.0,-65.0,1179.0,531.0
40,-552.0,-105.0,-809.0,-430.0,897.0,291.0
41,-537.0,-257.0,-766.0,-752.0,610.0,105.0
42,-505.0,-353.0,-717.0,-1011.0,321.0,4.0
43,-477.0,-400.0,-680.0,-1237.0,56.0,-70.0
44,-440.0,-376.0,-656.0,-1481.0,-179.0,-134.0
45,-396.0,-455.0,-638.0,-1786.0,-380.0,-184.0
46,-364.0,-716.0,-602.0,-2071.0,-542.0,-200.0
47,-342.0,-908.0,-529.0,-2230.0,-668.0,-197.0
48,-217.0,-1128.0,-385.0,-2328.0,-816.0,-105.0
49,-549.0,-1078.0,483.0,-464.0,534.0,121.0
50,-463.0,-1046.0,433.0,-362.0,305.0,126.0
51,-420.0,-999.0,388.0,-270.0,108.0,134.0
52,-435.0,-941.0,347.0,-199.0,-67.0,53.0
53,-427.0,-898.0,317.0,-156.0,-248.0,-64.0
54,-402.0,-874.0,308.0,-133.0,-422.0,-125.0
55,-365.0,-841.0,303.0,-126.0,-571.0,-105.0
56,-295.0,-810.0,292.0,-141.0,-689.0,-2.0
57,-220.0,-864.0,272.0,-162.0,-759.0,136.0
58,-189.0,-922.0,260.0,-140.0,-778.0,197.0
59,-183.0,-874.0,265.0,-82.0,-780.0,145.0
60,-194.0,-813.0,290.0,-50.0,-791.0,52.0
61,-204.0,-749.0,321.0,-65.0,-825.0,4.0
62,-53.0,-1048.0,142.0,-24.0,-936.0,-296.0
63,-446.0,-835.0,810.0,1368.0,-695.0,-1106.0
64,-149.0,-891.0,41.0,405.0,-72.0,102.0
65,-180.0,-900.0,46.0,363.0,-45.0,58.0
66,-136.0,-939.0,30.0,319.0,-53.0,19.0
67,-135.0,-965.0,21.0,290.0,-56.0,28.0
68,-152.0,-946.0,32.0,271.0,-42.0,26.0
69,-166.0,-976.0,21.0,238.0,-32.0,-7.0
70,-126.0,-983.0,21.0,214.0,-42.0,-24.0
71,-134.0,-981.0,20.0,195.0,-41.0,-3.0
72,-132.0,-991.0,16.0,182.0,-39.0,6.0
73,-132.0,-985.0,22.0,179.0,-32.0,49.0
74,-149.0,-977.0,31.0,145.0,-26.0,56.0
75,-149.0,-977.0,29.0,61.0,-36.0,43.0
76,-153.0,-970.0,33.0,61.0,-33.0,47.0
77,-154.0,-969.0,33.0,59.0,-33.0,49.0
78,-157.0,-972.0,33.0,58.0,-31.0,50.0
79,-158.0,-978.0,30.0,56.0,-31.0,48.0
80,-151.0,-979.0,28.0,56.0,-31.0,47.0
81,-154.0,-976.0,32.0,57.0,-30.0,52.0
82,-156.0,-976.0,32.0,57.0,-29.0,55.0
83,-157.0,-975.0,33.0,56.0,-28.0,57.0
84,-171.0,-978.0,34.0,56.0,-28.0,55.0
85,-173.0,-988.0,32.0,50.0,-32.0,41.0
86,-156.0,-998.0,24.0,52.0,-37.0,34.0
87,-96.0,-1100.0,13.0,292.0,-88.0,222.0
88,-170.0,-1366.0,-49.0,321.0,-77.0,261.0
89,215.0,-1274.0,-3.0,468.0,-77.0,255.0
90,-267.0,-1728.0,-150.0,581.0,79.0,316.0
91,-331.0,-1911.0,-217.0,853.0,24.0,454.0
92,-260.0,-1932.0,-145.0,1305.0,-14.0,348.0
93,-423.0,-1959.0,-187.0,1632.0,21.0,-92.0
94,-356.0,-1959.0,-273.0,2183.0,-71.0,-224.0
95,-167.0,-1959.0,-280.0,2549.0,-131.0,-194.0
96,-364.0,-1959.0,-312.0,2851.0,-23.0,-396.0
97,-411.0,-1933.0,-344.0,3145.0,20.0,-645.0
98,-441.0,-1933.0,-368.0,3390.0,32.0,-858.0
99,-130.0,-1821.0,-558.0,3634.0,50.0,-1135.0
100,-384.0,-1390.0,-299.0,3875.0,198.0,-1239.0
101,36.0,-1660.0,-642.0,3844.0,155.0,-1070.0
102,961.0,1246.0,-1713.0,3440.0,402.0,-468.0
103,-510.0,-284.0,-688.0,-1706.0,-129.0,-402.0
104,-443.0,-1663.0,100.0,-2989.0,-303.0,116.0
105,-619.0,-1751.0,169.0,-2914.0,-533.0,99.0
106,-632.0,-1696.0,223.0,-2790.0,-890.0,44.0
107,-477.0,-1581.0,247.0,-2708.0,-1268.0,-44.0
108,-274.0,-1593.0,260.0,-2695.0,-1556.0,-152.0
109,-131.0,-1734.0,284.0,-2646.0,-1710.0,-224.0
110,69.0,-1810.0,333.0,-2482.0,-1750.0,-167.0
111,308.0,-1754.0,404.0,-2243.0,-1648.0,10.0
112,570.0,-1685.0,480.0,-2013.0,-1398.0,184.0
113,839.0,-1576.0,542.0,-1812.0,-1019.0,276.0
114,1069.0,-1436.0,562.0,-1693.0,-532.0,229.0
115,728.0,-1682.0,661.0,-1455.0,529.0,-242.0
116,-305.0,-1115.0,508.0,-230.0,688.0,-23.0
117,-290.0,-1043.0,555.0,-54.0,530.0,53.0
118,-202.0,-977.0,581.0,76.0,367.0,141.0
119,-116.0,-1050.0,584.0,168.0,253.0,209.0
120,-116.0,-696.0,585.0,636.0,90.0,34.0
121,-1182.0,-1684.0,826.0,2155.0,-272.0,-1.0
122,-356.0,-772.0,550.0,2736.0,-858.0,-83.0
123,-106.0,-928.0,-151.0,2685.0,-996.0,-240.0
124,291.0,-1143.0,-492.0,2606.0,-1066.0,-103.0
125,204.0,-1205.0,-397.0,2631.0,-796.0,239.0
126,-178.0,-1099.0,-59.0,2714.0,-535.0,452.0
127,-220.0,-697.0,342.0,2195.0,-316.0,199.0
128,-198.0,-977.0,44.0,174.0,-49.0,-9.0
129,-169.0,-963.0,46.0,115.0,-72.0,-82.0
130,-165.0,-964.0,47.0,92.0,-75.0,-98.0
131,-163.0,-978.0,39.0,73.0,-74.0,-109.0
132,-160.0,-981.0,35.0,61.0,-73.0,-117.0
133,-148.0,-974.0,40.0,52.0,-74.0,-125.0
134,-123.0,-978.0,38.0,42.0,-71.0,-121.0
135,-124.0,-985.0,36.0,33.0,-62.0,-94.0
136,-125.0,-993.0,29.0,27.0,-58.0,-62.0
137,-128.0,-988.0,29.0,29.0,-57.0,-28.0
138,-148.0,-983.0,31.0,34.0,-53.0,-57.0
139,-154.0,-1008.0,29.0,101.0,-31.0,86.0
140,-146.0,-1008.0,30.0,115.0,-31.0,91.0
141,-154.0,-1004.0,34.0,125.0,-29.0,98.0
142,-157.0,-1000.0,39.0,129.0,-27.0,98.0
143,-168.0,-995.0,42.0,132.0,-25.0,91.0
144,-169.0,-989.0,45.0,131.0,-23.0,74.0
145,-176.0,-995.0,44.0,129.0,-21.0,56.0
146,-154.0,-1011.0,39.0,131.0,-22.0,37.0
147,-129.0,-1018.0,38.0,136.0,-17.0,30.0
148,-102.0,-1223.0,-7.0,285.0,-11.0,-96.0
149,-144.0,-1823.0,-520.0,3808.0,44.0,-1743.0
150,-10.0,-1951.0,-488.0,3931.0,167.0,-1957.0
151,51.0,-1737.0,-771.0,4121.0,379.0,-2406.0
152,225.0,-186.0,-482.0,4091.0,593.0,-2505.0
153,254.0,1634.0,-1457.0,3483.0,867.0,-2163.0
154,540.0,976.0,-796.0,2035.0,1250.0,-1278.0
155,-206.0,-405.0,-1108.0,909.0,1677.0,158.0
156,351.0,-27.0,-1146.0,547.0,1764.0,778.0
157,17.0,-349.0,-1112.0,392.0,2118.0,772.0
158,-420.0,368.0,-1100.0,261.0,2277.0,523.0
159,-857.0,220.0,-1020.0,-216.0,2125.0,508.0
160,-1074.0,-164.0,-852.0,-877.0,1198.0,632.0
161,992.0,-1818.0,454.0,-2724.0,-1345.0,-366.0
162,1037.0,-1824.0,576.0,-2452.0,-970.0,-558.0
163,1014.0,-1698.0,700.0,-2167.0,-516.0,-631.0
164,963.0,-1599.0,800.0,-1937.0,-51.0,-532.0
165,905.0,-1579.0,872.0,-1729.0,395.0,-359.0
166,801.0,-1614.0,945.0,-1479.0,823.0,-241.0
167,565.0,-1414.0,1028.0,-1195.0,1212.0,-206.0
168,289.0,-1191.0,1063.0,-1010.0,1486.0,-223.0
169,-16.0,-1270.0,1071.0,-892.0,1624.0,-236.0
170,-288.0,-1319.0,1065.0,-690.0,1619.0,-231.0
171,-484.0,-1484.0,877.0,-478.0,1460.0,-155.0
172,-415.0,-1026.0,1153.0,1094.0,680.0,1653.0
173,-158.0,-915.0,138.0,763.0,-190.0,169.0
174,-83.0,-925.0,58.0,566.0,-180.0,143.0
175,-167.0,-874.0,99.0,460.0,-110.0,103.0
176,-161.0,-934.0,61.0,344.0,-90.0,34.0
177,-98.0,-948.0,48.0,277.0,-100.0,13.0
178,-132.0,-930.0,58.0,230.0,-82.0,38.0
179,-159.0,-973.0,34.0,179.0,-65.0,22.0
180,-122.0,-991.0,20.0,158.0,-67.0,0.0
181,-137.0,-986.0,21.0,150.0,-62.0,11.0
182,-139.0,-985.0,30.0,123.0,-62.0,-40.0
183,-140.0,-980.0,36.0,95.0,-54.0,46.0
184,-152.0,-974.0,40.0,89.0,-53.0,45.0
185,-151.0,-970.0,40.0,81.0,-55.0,34.0
186,-145.0,-967.0,43.0,74.0,-54.0,22.0
187,-141.0,-968.0,42.0,66.0,-52.0,17.0
188,-143.0,-974.0,41.0,59.0,-48.0,18.0
189,-144.0,-978.0,40.0,55.0,-47.0,16.0
190,-147.0,-983.0,37.0,52.0,-46.0,17.0
191,-144.0,-985.0,35.0,53.0,-46.0,18.0
192,-134.0,-984.0,36.0,58.0,-46.0,22.0
193,-133.0,-975.0,42.0,61.0,-44.0,36.0
194,-142.0,-974.0,40.0,55.0,-39.0,52.0
195,-149.0,-988.0,34.0,27.0,-24.0,44.0
196,440.0,-1889.0,-185.0,766.0,-66.0,-222.0
197,-689.0,-1959.0,-194.0,1135.0,235.0,-507.0
198,-800.0,-1959.0,-425.0,1663.0,-117.0,-101.0
199,-395.0,-1959.0,-185.0,2344.0,-325.0,-464.0
200,-459.0,-1959.0,-422.0,2678.0,-261.0,-934.0
201,-986.0,-1959.0,-400.0,3102.0,-303.0,-928.0
202,-679.0,-1959.0,-533.0,3454.0,-551.0,-919.0
203,-829.0,-1802.0,-330.0,3872.0,-533.0,-1149.0
204,-741.0,-1959.0,-605.0,4087.0,-624.0,-1421.0
205,-794.0,-1930.0,-626.0,4446.0,-662.0,-1690.0
206,-620.0,-1958.0,-611.0,4639.0,-685.0,-1984.0
207,-492.0,-1952.0,-829.0,5008.0,-1175.0,-1134.0
208,-269.0,-161.0,-730.0,-1950.0,9.0,1118.0
209,360.0,-1567.0,41.0,-3284.0,71.0,61.0
210,368.0,-1488.0,92.0,-3308.0,80.0,11.0
211,332.0,-1398.0,132.0,-3434.0,73.0,-59.0
212,217.0,-1443.0,155.0,-3637.0,33.0,-137.0
213,159.0,-1661.0,203.0,-3795.0,-55.0,-162.0
214,117.0,-1897.0,296.0,-3802.0,-139.0,-153.0
215,104.0,-1959.0,420.0,-3659.0,-196.0,-171.0
216,151.0,-1958.0,565.0,-3460.0,-231.0,-177.0
217,247.0,-1909.0,733.0,-3275.0,-232.0,-152.0
218,383.0,-1910.0,907.0,-3104.0,-181.0,-108.0
219,547.0,-1959.0,1098.0,-2866.0,-58.0,-52.0
220,677.0,-1223.0,1574.0,-2057.0,456.0,0.0
221,-130.0,-617.0,320.0,2254.0,-597.0,40.0
222,81.0,-696.0,292.0,1737.0,-482.0,-41.0
223,8.0,-798.0,183.0,1235.0,-269.0,82.0
224,-178.0,-806.0,207.0,860.0,-189.0,204.0
225,-107.0,-990.0,10.0,625.0,-208.0,220.0
226,-95.0,-908.0,45.0,568.0,-181.0,234.0
227,-168.0,-859.0,99.0,498.0,-115.0,203.0
228,-107.0,-879.0,86.0,392.0,-93.0,148.0
229,-123.0,-994.0,13.0,296.0,-67.0,147.0
230,-144.0,-978.0,23.0,270.0,-51.0,142.0
231,-149.0,-970.0,36.0,241.0,-44.0,122.0
232,-170.0,-969.0,31.0,198.0,-48.0,84.0
233,-159.0,-970.0,31.0,172.0,-54.0,47.0
234,-166.0,-983.0,22.0,150.0,-57.0,20.0
235,-160.0,-977.0,29.0,138.0,-61.0,-6.0
236,-159.0,-976.0,29.0,123.0,-63.0,-30.0
237,-150.0,-983.0,25.0,108.0,-64.0,-53.0
238,-150.0,-985.0,28.0,96.0,-64.0,-68.0
239,-135.0,-992.0,23.0,83.0,-65.0,-73.0
240,-126.0,-991.0,20.0,77.0,-64.0,-64.0
241,-115.0,-986.0,19.0,77.0,-64.0,-41.0
242,-124.0,-981.0,22.0,76.0,-61.0,-11.0
243,-139.0,-979.0,26.0,72.0,-56.0,16.0
244,-158.0,-974.0,32.0,68.0,-40.0,47.0
245,-157.0,-977.0,33.0,65.0,-40.0,36.0
246,-145.0,-980.0,30.0,61.0,-41.0,26.0
247,-149.0,-987.0,26.0,61.0,-40.0,25.0
248,-159.0,-994.0,27.0,65.0,-39.0,24.0
249,-150.0,-998.0,26.0,67.0,-42.0,17.0
250,-145.0,-991.0,27.0,69.0,-43.0,16.0
251,-149.0,-988.0,30.0,72.0,-43.0,21.0
252,-156.0,-988.0,31.0,71.0,-45.0,19.0
253,-156.0,-989.0,30.0,71.0,-45.0,11.0
254,-160.0,-984.0,33.0,73.0,-46.0,3.0
255,-152.0,-991.0,31.0,66.0,-46.0,-27.0
256,-144.0,-1038.0,32.0,243.0,-33.0,-86.0
257,-165.0,-1045.0,38.0,265.0,-28.0,-111.0
258,-170.0,-1090.0,30.0,292.0,-20.0,-174.0
259,-149.0,-1155.0,12.0,344.0,-29.0,-208.0
260,-109.0,-1081.0,31.0,419.0,-34.0,-233.0
261,-116.0,-1069.0,52.0,460.0,-9.0,-292.0
262,-166.0,-1084.0,51.0,491.0,1.0,-320.0
263,-137.0,-1187.0,28.0,528.0,-22.0,-351.0
264,-128.0,-1155.0,64.0,596.0,-32.0,-362.0
265,-260.0,-1294.0,23.0,650.0,-66.0,-273.0
266,-284.0,-1508.0,-1.0,1010.0,-176.0,-148.0
267,-374.0,-1959.0,-518.0,5143.0,-310.0,-1055.0
268,-51.0,-1934.0,-1089.0,5338.0,-368.0,-827.0
269,470.0,-70.0,-1033.0,5444.0,-503.0,-417.0
270,1208.0,1958.0,-1665.0,4822.0,-262.0,-483.0
271,701.0,1088.0,-786.0,1742.0,272.0,-69.0
272,390.0,-1386.0,-1490.0,195.0,546.0,601.0
273,732.0,-128.0,-1352.0,328.0,617.0,1047.0
274,806.0,312.0,-1216.0,256.0,921.0,1113.0
275,361.0,684.0,-1209.0,-151.0,1276.0,748.0
276,-135.0,597.0,-1214.0,-792.0,1344.0,437.0
277,-494.0,191.0,-1078.0,-1349.0,1120.0,496.0
278,-462.0,253.0,-875.0,-2023.0,243.0,721.0
279,-938.0,-1364.0,993.0,-358.0,448.0,-46.0
280,976.0,-902.0,-206.0,2816.0,712.0,-685.0
281,-260.0,-1063.0,-226.0,2730.0,808.0,332.0
282,-671.0,-1180.0,105.0,2685.0,309.0,451.0
283,-34.0,-902.0,249.0,2508.0,-283.0,394.0
284,-252.0,-378.0,641.0,2066.0,-464.0,493.0
285,215.0,-420.0,535.0,1226.0,-447.0,437.0
286,-236.0,-897.0,219.0,556.0,-121.0,547.0
287,-291.0,-1214.0,-119.0,321.0,-61.0,395.0
288,-108.0,-977.0,31.0,404.0,-109.0,258.0
289,-169.0,-930.0,50.0,372.0,-80.0,258.0
290,-203.0,-955.0,19.0,313.0,-51.0,166.0
291,-136.0,-986.0,10.0,264.0,-59.0,44.0
292,-157.0,-981.0,37.0,121.0,-22.0,138.0
293,-159.0,-969.0,43.0,114.0,-24.0,130.0
294,-177.0,-968.0,42.0,104.0,-27.0,118.0
295,-173.0,-975.0,43.0,89.0,-36.0,90.0
296,-173.0,-973.0,42.0,75.0,-41.0,64.0
297,-168.0,-982.0,35.0,64.0,-46.0,44.0
298,-161.0,-978.0,37.0,58.0,-49.0,28.0
299,-153.0,-978.0,36.0,54.0,-51.0,21.0
300,-151.0,-977.0,36.0,55.0,-49.0,24.0
301,-154.0,-968.0,40.0,60.0,-42.0,37.0
302,-165.0,-987.0,39.0,78.0,-41.0,37.0
303,-174.0,-981.0,43.0,81.0,-42.0,35.0
304,-171.0,-986.0,42.0,80.0,-45.0,26.0
305,-168.0,-998.0,37.0,80.0,-47.0,16.0
306,-176.0,-998.0,39.0,85.0,-49.0,9.0
307,-170.0,-995.0,43.0,90.0,-51.0,-2.0
308,-160.0,-995.0,41.0,93.0,-52.0,-6.0
309,-163.0,-984.0,44.0,97.0,-51.0,-4.0
310,-162.0,-994.0,43.0,98.0,-51.0,-5.0
311,-157.0,-1000.0,42.0,104.0,-51.0,-3.0
312,-156.0,-1018.0,36.0,112.0,-50.0,3.0
313,-133.0,-1051.0,33.0,163.0,-53.0,41.0
314,-604.0,-1817.0,-89.0,1048.0,-65.0,-597.0
315,-437.0,-1813.0,-77.0,1315.0,-241.0,-520.0
316,-190.0,-1642.0,-54.0,1574.0,-306.0,-723.0
317,-348.0,-1743.0,-90.0,1759.0,-247.0,-887.0
318,-57.0,-1708.0,-130.0,2013.0,-321.0,-896.0
319,-272.0,-1545.0,-40.0,2239.0,-228.0,-988.0
320,-104.0,-1946.0,-206.0,2380.0,-195.0,-1219.0
321,-144.0,-1755.0,-158.0,2689.0,-104.0,-1407.0
322,52.0,-1649.0,-179.0,2875.0,-10.0,-1692.0
323,-15.0,-1658.0,-178.0,3008.0,195.0,-2088.0
324,21.0,-1625.0,-215.0,3107.0,356.0,-2410.0
325,346.0,-1433.0,-150.0,3189.0,670.0,-2770.0
326,-1097.0,-127.0,-757.0,-615.0,2275.0,933.0
327,-984.0,-137.0,-703.0,-865.0,1664.0,826.0
328,-903.0,-183.0,-656.0,-1106.0,1131.0,572.0
329,-795.0,-240.0,-617.0,-1332.0,648.0,281.0
330,-676.0,-239.0,-587.0,-1558.0,231.0,35.0
331,-563.0,-265.0,-577.0,-1820.0,-107.0,-135.0
332,-436.0,-405.0,-558.0,-2098.0,-371.0,-211.0
333,-324.0,-607.0,-513.0,-2325.0,-552.0,-207.0
334,-256.0,-720.0,-450.0,-2471.0,-654.0,-170.0
335,-225.0,-745.0,-386.0,-2599.0,-703.0,-151.0
336,-204.0,-838.0,-327.0,-2757.0,-724.0,-151.0
337,-250.0,-1792.0,340.0,-2513.0,-244.0,-20.0
338,-437.0,-1182.0,1380.0,-373.0,1781.0,510.0
339,-429.0,-1144.0,1289.0,-71.0,1755.0,1048.0
340,-399.0,-1070.0,1165.0,198.0,1675.0,1290.0
341,-440.0,-1066.0,1035.0,409.0,1540.0,1258.0
342,-543.0,-1094.0,931.0,590.0,1327.0,1111.0
343,-1128.0,-1455.0,-118.0,543.0,1095.0,991.0
344,-26.0,381.0,-170.0,2549.0,236.0,1282.0
345,-123.0,-625.0,-817.0,2097.0,9.0,814.0
346,-76.0,-1301.0,-818.0,2675.0,-506.0,650.0
347,-32.0,-1199.0,-421.0,3108.0,-738.0,648.0
348,-279.0,-910.0,-101.0,3312.0,-720.0,713.0
349,-11.0,-705.0,304.0,2855.0,-805.0,288.0
350,-179.0,-993.0,21.0,100.0,-30.0,20.0
351,-174.0,-1003.0,17.0,93.0,-32.0,12.0
352,-172.0,-994.0,19.0,93.0,-34.0,9.0
353,-172.0,-984.0,22.0,93.0,-36.0,11.0
354,-171.0,-980.0,23.0,91.0,-38.0,16.0
355,-173.0,-978.0,24.0,89.0,-39.0,22.0
356,-175.0,-980.0,24.0,87.0,-39.0,25.0
357,-176.0,-974.0,26.0,85.0,-39.0,26.0
358,-184.0,-970.0,29.0,77.0,-40.0,22.0
359,-186.0,-972.0,28.0,68.0,-42.0,13.0
360,-184.0,-972.0,25.0,59.0,-44.0,3.0
361,-179.0,-966.0,29.0,53.0,-46.0,-5.0
362,-174.0,-964.0,28.0,45.0,-46.0,-9.0
363,-179.0,-967.0,26.0,38.0,-44.0,-9.0
364,-181.0,-968.0,24.0,11.0,-41.0,-7.0
365,-180.0,-962.0,26.0,9.0,-41.0,-7.0
366,-180.0,-961.0,27.0,6.0,-40.0,-7.0
367,-186.0,-960.0,31.0,1.0,-40.0,-8.0
368,-195.0,-973.0,31.0,-14.0,-39.0,-20.0
369,-186.0,-989.0,24.0,-31.0,-41.0,-39.0
370,-194.0,-991.0,22.0,-41.0,-44.0,-53.0
371,-203.0,-1001.0,21.0,-51.0,-48.0,-77.0
372,-190.0,-1006.0,16.0,-64.0,-55.0,-109.0
373,-191.0,-1004.0,19.0,-73.0,-63.0,-127.0
374,-181.0,-1007.0,17.0,-78.0,-76.0,-131.0
375,-227.0,-1059.0,-1.0,-85.0,-79.0,-146.0
376,-186.0,-1012.0,15.0,-78.0,-99.0,-168.0
377,-164.0,-1098.0,-62.0,-118.0,-118.0,-165.0
378,-212.0,-469.0,-791.0,450.0,-787.0,360.0
379,-86.0,-114.0,-893.0,167.0,-735.0,442.0
380,-66.0,-414.0,-874.0,-208.0,-655.0,468.0
381,-100.0,-534.0,-804.0,-451.0,-582.0,308.0
382,-146.0,-659.0,-710.0,-577.0,-545.0,216.0
383,-165.0,-682.0,-630.0,-659.0,-560.0,184.0
384,-189.0,-843.0,-554.0,-742.0,-598.0,141.0
385,-202.0,-966.0,-476.0,-752.0,-659.0,82.0
386,-238.0,-1029.0,-405.0,-704.0,-742.0,15.0
387,-295.0,-984.0,-345.0,-640.0,-849.0,-71.0
388,-329.0,-834.0,-313.0,-646.0,-983.0,-123.0
389,-208.0,-876.0,-273.0,-963.0,-1243.0,-17.0
390,174.0,-788.0,158.0,-297.0,-1163.0,-1163.0
391,76.0,-864.0,174.0,-511.0,-1081.0,-1178.0
392,22.0,-1033.0,169.0,-639.0,-1047.0,-951.0
393,51.0,-1126.0,185.0,-649.0,-1017.0,-670.0
394,81.0,-1148.0,208.0,-595.0,-940.0,-540.0
395,83.0,-1182.0,237.0,-515.0,-840.0,-532.0
396,57.0,-1222.0,266.0,-406.0,-747.0,-535.0
397,40.0,-1232.0,285.0,-260.0,-681.0,-471.0
398,47.0,-1215.0,294.0,-93.0,-636.0,-355.0
399,62.0,-1116.0,308.0,62.0,-590.0,-274.0
400,35.0,-876.0,339.0,128.0,-530.0,-310.0
401,-61.0,-801.0,331.0,66.0,-494.0,-394.0
402,-135.0,-849.0,306.0,-14.0,-535.0,-348.0
403,-149.0,-779.0,308.0,-76.0,-614.0,-235.0
404,-164.0,-776.0,280.0,-166.0,-704.0,-115.0
405,-72.0,-950.0,244.0,-234.0,-872.0,241.0
406,565.0,-1552.0,-112.0,-155.0,782.0,-113.0
407,520.0,156.0,297.0,1383.0,1213.0,3.0
408,748.0,-597.0,-122.0,1388.0,1508.0,845.0
409,-690.0,-735.0,542.0,1632.0,1490.0,1579.0
410,-1237.0,-809.0,645.0,1245.0,305.0,1518.0
411,394.0,-712.0,247.0,683.0,-426.0,832.0
412,-458.0,-1059.0,24.0,423.0,-112.0,952.0
413,-258.0,-927.0,71.0,295.0,-38.0,572.0
414,-311.0,-957.0,79.0,158.0,28.0,321.0
415,-221.0,-1089.0,-35.0,55.0,-19.0,150.0
416,-133.0,-975.0,-6.0,7.0,-33.0,-105.0
417,-142.0,-988.0,-5.0,0.0,2.0,-79.0
418,-139.0,-983.0,-1.0,0.0,2.0,-89.0
419,-136.0,-990.0,-4.0,-6.0,2.0,-101.0
420,-135.0,-1001.0,-18.0,-7.0,3.0,-108.0
421,-141.0,-1005.0,-18.0,2.0,0.0,-116.0
422,-133.0,-1010.0,-18.0,16.0,-5.0,-125.0
423,-118.0,-1014.0,-19.0,27.0,-11.0,-124.0
424,-112.0,-1008.0,-16.0,36.0,-18.0,-105.0
425,-108.0,-989.0,-6.0,41.0,-22.0,-81.0
426,-104.0,-980.0,-1.0,36.0,-23.0,-57.0
427,-104.0,-988.0,-10.0,27.0,-22.0,-32.0
428,-105.0,-991.0,-16.0,36.0,-24.0,31.0
429,-148.0,-983.0,1.0,101.0,-22.0,141.0
430,-152.0,-979.0,3.0,98.0,-24.0,130.0
431,-154.0,-978.0,5.0,90.0,-24.0,117.0
432,-157.0,-978.0,3.0,83.0,-25.0,102.0
433,-161.0,-979.0,5.0,79.0,-26.0,86.0
434,-159.0,-978.0,5.0,72.0,-27.0,69.0
435,-157.0,-975.0,6.0,67.0,-27.0,55.0
436,-154.0,-975.0,6.0,61.0,-27.0,42.0