sequence,AccelerometerX,AccelerometerY,AccelerometerZ,GyroscopeX,GyroscopeY,GyroscopeZ
0,478.0,-260.0,635.0,-132.0,1233.0,-727.0
1,-1663.0,-1511.0,354.0,-383.0,1865.0,-1066.0
2,-1918.0,-858.0,510.0,183.0,956.0,-30.0
3,-1073.0,-641.0,289.0,225.0,-46.0,598.0
4,-98.0,-842.0,148.0,77.0,-388.0,570.0
5,1.0,-758.0,172.0,-8.0,-202.0,74.0
6,-169.0,-1018.0,148.0,-117.0,-306.0,-109.0
7,-196.0,-977.0,132.0,-126.0,39.0,175.0
8,-111.0,-988.0,106.0,-9.0,-27.0,64.0
9,-107.0,-989.0,103.0,-12.0,-31.0,44.0
10,-99.0,-991.0,99.0,-11.0,-35.0,28.0
11,-99.0,-989.0,99.0,-9.0,-35.0,17.0
12,-100.0,-991.0,99.0,-7.0,-37.0,7.0
13,-89.0,-993.0,97.0,-5.0,-39.0,-1.0
14,-84.0,-976.0,102.0,-2.0,-39.0,-2.0
15,-89.0,-972.0,107.0,-7.0,-37.0,0.0
16,-91.0,-966.0,110.0,-19.0,-38.0,-1.0
17,-88.0,-964.0,108.0,-34.0,-39.0,-3.0
18,-81.0,-951.0,115.0,-51.0,-39.0,-3.0
19,-85.0,-936.0,123.0,-80.0,-36.0,-1.0
20,-75.0,-948.0,114.0,-117.0,-35.0,2.0
21,643.0,-1095.0,-321.0,-239.0,-369.0,-139.0
22,618.0,-1096.0,-331.0,-225.0,-216.0,-331.0
23,541.0,-1050.0,-324.0,-189.0,-57.0,-420.0
24,470.0,-1037.0,-323.0,-172.0,82.0,-464.0
25,413.0,-1033.0,-309.0,-153.0,204.0,-540.0
26,365.0,-1043.0,-282.0,-129.0,312.0,-657.0
27,371.0,-1077.0,-257.0,-95.0,401.0,-784.0
28,395.0,-1030.0,-221.0,-38.0,500.0,-853.0
29,400.0,-977.0,-181.0,-12.0,621.0,-877.0
30,391.0,-866.0,-140.0,-37.0,753.0,-861.0
31,360.0,-857.0,-118.0,-147.0,896.0,-809.0
32,177.0,-1088.0,-68.0,-304.0,1117.0,-818.0
33,4.0,-1105.0,72.0,-275.0,789.0,-616.0
34,-45.0,-1126.0,87.0,-220.0,806.0,-625.0
35,-101.0,-1037.0,94.0,-150.0,802.0,-644.0
36,-183.0,-937.0,97.0,-134.0,784.0,-658.0
37,-266.0,-914.0,98.0,-171.0,740.0,-632.0
38,-306.0,-962.0,97.0,-201.0,672.0,-563.0
39,-318.0,-1007.0,108.0,-175.0,602.0,-482.0
40,-311.0,-976.0,126.0,-107.0,551.0,-405.0
41,-322.0,-868.0,128.0,-57.0,524.0,-280.0
42,-329.0,-822.0,115.0,-72.0,500.0,-105.0
43,-343.0,-857.0,109.0,-119.0,470.0,39.0
44,-374.0,-932.0,106.0,-131.0,344.0,157.0
45,350.0,-596.0,67.0,769.0,417.0,1892.0
46,-103.0,-912.0,111.0,571.0,458.0,2217.0
47,-189.0,-946.0,185.0,581.0,276.0,2424.0
48,-658.0,-1368.0,166.0,562.0,183.0,2426.0
49,-691.0,-1281.0,325.0,554.0,55.0,2062.0
50,-166.0,-905.0,159.0,248.0,-154.0,1172.0
51,-232.0,-1288.0,-32.0,89.0,-115.0,638.0
52,-215.0,-1221.0,-20.0,198.0,-145.0,379.0
53,-133.0,-1025.0,64.0,297.0,-174.0,337.0
54,-122.0,-953.0,94.0,291.0,-151.0,297.0
55,-118.0,-930.0,91.0,256.0,-108.0,215.0
56,-80.0,-927.0,95.0,224.0,-84.0,125.0
57,-111.0,-976.0,98.0,84.0,3.0,50.0
58,-113.0,-980.0,97.0,70.0,0.0,42.0
59,-118.0,-982.0,95.0,59.0,-4.0,29.0
60,-119.0,-986.0,96.0,50.0,-9.0,14.0
61,-112.0,-996.0,88.0,41.0,-14.0,-2.0
62,-100.0,-989.0,89.0,43.0,-17.0,-9.0
63,-100.0,-978.0,92.0,47.0,-16.0,-7.0
64,-101.0,-981.0,91.0,47.0,-14.0,-4.0
65,-108.0,-991.0,94.0,41.0,-14.0,11.0
66,-108.0,-980.0,96.0,35.0,-33.0,-8.0
67,-108.0,-975.0,96.0,30.0,-36.0,-12.0
68,-109.0,-980.0,92.0,24.0,-37.0,-16.0
69,-112.0,-980.0,94.0,23.0,-39.0,-22.0
70,-111.0,-981.0,95.0,19.0,-41.0,-30.0
71,-104.0,-977.0,93.0,16.0,-44.0,-36.0
72,-105.0,-977.0,91.0,14.0,-43.0,-37.0
73,-104.0,-978.0,91.0,14.0,-43.0,-39.0
74,-103.0,-983.0,88.0,16.0,-43.0,-41.0
75,-105.0,-985.0,89.0,20.0,-43.0,-42.0
76,-99.0,-990.0,86.0,25.0,-44.0,-42.0
77,-89.0,-984.0,89.0,40.0,-43.0,-23.0
78,628.0,-1959.0,5.0,2122.0,338.0,3197.0
79,487.0,-1959.0,2.0,2270.0,647.0,2844.0
80,403.0,-1894.0,134.0,2777.0,920.0,1769.0
81,745.0,-1862.0,46.0,2852.0,1062.0,1888.0
82,975.0,-1193.0,61.0,2927.0,1232.0,2569.0
83,767.0,-133.0,102.0,2671.0,1411.0,3267.0
84,-89.0,-523.0,123.0,1841.0,1381.0,4100.0
85,-1462.0,-1145.0,214.0,1376.0,572.0,4954.0
86,633.0,-984.0,-92.0,1278.0,-1631.0,3343.0
87,948.0,-835.0,-201.0,765.0,-2237.0,-91.0
88,753.0,-1138.0,-405.0,486.0,-2607.0,-1416.0
89,1722.0,-195.0,-697.0,509.0,-3181.0,-1189.0
90,-220.0,-1412.0,217.0,-1529.0,1504.0,-2371.0
91,-532.0,-1230.0,55.0,-1766.0,-3056.0,-1735.0
92,-484.0,-1213.0,26.0,-1804.0,-3076.0,-1398.0
93,-310.0,-1294.0,19.0,-1888.0,-3079.0,-1176.0
94,-131.0,-1308.0,106.0,-1930.0,-2995.0,-1050.0
95,75.0,-1285.0,205.0,-1937.0,-2809.0,-978.0
96,199.0,-1287.0,324.0,-1910.0,-2502.0,-882.0
97,183.0,-1338.0,452.0,-1830.0,-2110.0,-811.0
98,87.0,-1345.0,594.0,-1679.0,-1727.0,-790.0
99,-983.0,-1155.0,1159.0,-264.0,-1070.0,-1291.0
100,-1439.0,-1605.0,-117.0,3375.0,-673.0,3556.0
101,0.0,-985.0,177.0,3289.0,-934.0,1879.0
102,-415.0,-890.0,405.0,2866.0,-381.0,1211.0
103,-348.0,-477.0,681.0,2379.0,-367.0,774.0
104,-102.0,-735.0,443.0,1521.0,-292.0,421.0
105,-223.0,-704.0,430.0,889.0,-208.0,422.0
106,-113.0,-1167.0,-11.0,452.0,-195.0,341.0
107,-55.0,-976.0,34.0,526.0,-167.0,241.0
108,-87.0,-747.0,175.0,560.0,-118.0,191.0
109,30.0,-756.0,189.0,450.0,-103.0,175.0
110,-11.0,-877.0,133.0,331.0,-51.0,250.0
111,-124.0,-965.0,131.0,206.0,23.0,197.0
112,-88.0,-986.0,110.0,43.0,-55.0,-80.0
113,-82.0,-981.0,111.0,47.0,-53.0,-72.0
114,-79.0,-973.0,115.0,49.0,-49.0,-57.0
115,-82.0,-970.0,114.0,48.0,-43.0,-41.0
116,-87.0,-965.0,117.0,46.0,-39.0,-29.0
117,-97.0,-965.0,118.0,43.0,-36.0,-24.0
118,-99.0,-976.0,117.0,38.0,-35.0,-24.0
119,-101.0,-983.0,116.0,33.0,-37.0,-26.0
120,-105.0,-979.0,119.0,29.0,-39.0,-31.0
121,-109.0,-981.0,119.0,23.0,-43.0,-40.0
122,-107.0,-980.0,118.0,19.0,-47.0,-54.0
123,-82.0,-992.0,103.0,19.0,-54.0,-75.0
124,-83.0,-1045.0,123.0,323.0,-25.0,155.0
125,822.0,-1959.0,-117.0,2987.0,304.0,667.0
126,856.0,-1959.0,-119.0,3404.0,655.0,354.0
127,580.0,-1959.0,-213.0,3679.0,1071.0,37.0
128,633.0,-1936.0,-301.0,3910.0,1244.0,444.0
129,1342.0,-1688.0,-336.0,4101.0,1270.0,1263.0
130,1492.0,-1653.0,-530.0,4099.0,1632.0,1853.0
131,1334.0,-85.0,-1042.0,4225.0,1959.0,2453.0
132,352.0,1957.0,-1182.0,3648.0,2142.0,2322.0
133,347.0,-695.0,-685.0,904.0,1711.0,651.0
134,550.0,-1149.0,-980.0,428.0,1378.0,-822.0
135,168.0,-94.0,-781.0,768.0,1291.0,-668.0
136,327.0,26.0,-798.0,-245.0,829.0,-237.0
137,166.0,-1071.0,128.0,-1918.0,-365.0,-1665.0
138,-461.0,-1289.0,296.0,-2142.0,-1223.0,-1704.0
139,-414.0,-1340.0,263.0,-2177.0,-1429.0,-1624.0
140,-402.0,-1372.0,246.0,-2172.0,-1587.0,-1577.0
141,-422.0,-1385.0,242.0,-2134.0,-1710.0,-1555.0
142,-457.0,-1382.0,257.0,-2078.0,-1817.0,-1506.0
143,-493.0,-1395.0,282.0,-2027.0,-1927.0,-1421.0
144,-465.0,-1489.0,325.0,-1974.0,-2055.0,-1321.0
145,-271.0,-1556.0,382.0,-1842.0,-2170.0,-1212.0
146,78.0,-1514.0,469.0,-1635.0,-2174.0,-1106.0
147,480.0,-1518.0,577.0,-1400.0,-1957.0,-1046.0
148,744.0,-1409.0,706.0,-1122.0,-1473.0,-1094.0
149,295.0,-1244.0,-366.0,2149.0,-907.0,4390.0
150,-63.0,-935.0,116.0,381.0,-33.0,343.0
151,-172.0,-952.0,128.0,349.0,23.0,327.0
152,-114.0,-965.0,129.0,303.0,21.0,255.0
153,-114.0,-981.0,108.0,261.0,22.0,232.0
154,-133.0,-953.0,115.0,248.0,29.0,212.0
155,-153.0,-966.0,121.0,224.0,33.0,169.0
156,-143.0,-987.0,109.0,196.0,20.0,129.0
157,-162.0,-981.0,119.0,179.0,12.0,89.0
158,-142.0,-988.0,115.0,153.0,-5.0,45.0
159,-147.0,-985.0,113.0,134.0,-16.0,16.0
160,-141.0,-987.0,113.0,118.0,-28.0,-13.0
161,-122.0,-992.0,111.0,103.0,-44.0,-36.0
162,-110.0,-987.0,110.0,58.0,-59.0,-67.0
163,-112.0,-977.0,121.0,140.0,-36.0,74.0
164,-120.0,-969.0,127.0,142.0,-33.0,75.0
165,-119.0,-976.0,128.0,136.0,-31.0,70.0
166,-125.0,-972.0,130.0,134.0,-30.0,65.0
167,-124.0,-974.0,132.0,128.0,-33.0,54.0
168,-125.0,-980.0,130.0,119.0,-33.0,39.0
169,-125.0,-977.0,133.0,117.0,-35.0,30.0
170,-138.0,-983.0,135.0,113.0,-37.0,22.0
171,-134.0,-982.0,132.0,113.0,-41.0,12.0
172,-144.0,-974.0,137.0,113.0,-44.0,-2.0
173,-134.0,-977.0,135.0,111.0,-48.0,-18.0
174,-132.0,-991.0,130.0,110.0,-50.0,-35.0
175,-136.0,-1009.0,128.0,120.0,-52.0,-44.0
176,-133.0,-1011.0,130.0,140.0,-58.0,-44.0
177,-51.0,-1026.0,116.0,206.0,-52.0,13.0
178,-241.0,-1778.0,132.0,1177.0,-163.0,374.0
179,1861.0,-1943.0,-834.0,4239.0,1159.0,2985.0
180,773.0,1196.0,-1729.0,4936.0,1482.0,3584.0
181,-314.0,1169.0,-207.0,2745.0,973.0,2427.0
182,1423.0,-1765.0,-1102.0,-220.0,34.0,-214.0
183,439.0,-1147.0,-855.0,297.0,220.0,-903.0
184,685.0,216.0,-914.0,585.0,-188.0,-445.0
185,962.0,457.0,-936.0,-60.0,-291.0,-268.0
186,902.0,-31.0,-976.0,-910.0,-140.0,-456.0
187,768.0,-411.0,-913.0,-1400.0,-2.0,-656.0
188,657.0,-511.0,-781.0,-1593.0,115.0,-818.0
189,507.0,-417.0,-685.0,-1723.0,215.0,-976.0
190,230.0,-571.0,-503.0,-2212.0,272.0,-1318.0
191,-966.0,-1416.0,718.0,-1409.0,-657.0,-1567.0
192,-996.0,-1223.0,759.0,-1262.0,-933.0,-1359.0
193,-1007.0,-1182.0,780.0,-1223.0,-1237.0,-1235.0
194,-953.0,-1267.0,797.0,-1180.0,-1565.0,-1106.0
195,-859.0,-1358.0,797.0,-1045.0,-1867.0,-958.0
196,-764.0,-1378.0,803.0,-811.0,-2106.0,-847.0
197,-680.0,-1353.0,818.0,-527.0,-2273.0,-802.0
198,-632.0,-1113.0,853.0,-236.0,-2361.0,-814.0
199,-694.0,-793.0,871.0,-89.0,-2384.0,-794.0
200,-743.0,-690.0,855.0,-125.0,-2409.0,-600.0
201,-759.0,-934.0,819.0,-192.0,-2432.0,-248.0
202,-627.0,-1162.0,796.0,212.0,-2488.0,387.0
203,174.0,-668.0,472.0,1567.0,-418.0,310.0
204,-116.0,-980.0,119.0,173.0,19.0,152.0
205,-114.0,-976.0,130.0,169.0,17.0,140.0
206,-123.0,-985.0,128.0,152.0,15.0,129.0
207,-150.0,-994.0,128.0,134.0,10.0,111.0
208,-154.0,-993.0,127.0,119.0,-5.0,75.0
209,-163.0,-991.0,131.0,104.0,-20.0,32.0
210,-155.0,-990.0,131.0,86.0,-40.0,-15.0
211,-127.0,-986.0,127.0,71.0,-57.0,-51.0
212,-114.0,-975.0,128.0,62.0,-64.0,-68.0
213,-103.0,-975.0,124.0,52.0,-63.0,-75.0
214,-95.0,-972.0,127.0,49.0,-61.0,-71.0
215,-94.0,-970.0,122.0,48.0,-31.0,-8.0
216,-69.0,-1014.0,101.0,68.0,-37.0,-63.0
217,-72.0,-1022.0,102.0,101.0,-32.0,-23.0
218,-78.0,-1030.0,106.0,135.0,-29.0,13.0
219,-77.0,-1030.0,106.0,167.0,-28.0,48.0
220,-91.0,-1016.0,121.0,194.0,-27.0,75.0
221,-98.0,-1016.0,122.0,204.0,-28.0,89.0
222,-110.0,-1028.0,118.0,216.0,-29.0,95.0
223,-116.0,-1013.0,125.0,234.0,-31.0,92.0
224,-120.0,-1016.0,124.0,245.0,-32.0,79.0
225,-128.0,-1001.0,137.0,257.0,-32.0,55.0
226,-123.0,-995.0,140.0,259.0,-32.0,27.0
227,-93.0,-1077.0,128.0,273.0,-30.0,7.0
228,464.0,-1959.0,26.0,2567.0,300.0,1073.0
229,-143.0,-1959.0,-16.0,2839.0,632.0,717.0
230,-215.0,-1959.0,56.0,3266.0,673.0,401.0
231,780.0,-1959.0,-337.0,3654.0,542.0,359.0
232,1409.0,-1886.0,-299.0,3995.0,799.0,504.0
233,1153.0,-1603.0,-129.0,4045.0,1299.0,1255.0
234,1013.0,-1808.0,-332.0,3913.0,1510.0,2415.0
235,886.0,-1691.0,-448.0,3964.0,1604.0,3017.0
236,-619.0,28.0,-912.0,4015.0,1572.0,3102.0
237,-482.0,1630.0,-28.0,3228.0,301.0,1953.0
238,258.0,-1008.0,-581.0,1194.0,-543.0,-391.0
239,-21.0,-388.0,-555.0,1282.0,-1349.0,-582.0
240,-369.0,-448.0,-493.0,-2262.0,-913.0,-962.0
241,-286.0,-559.0,-470.0,-2474.0,-1075.0,-935.0
242,-159.0,-677.0,-431.0,-2656.0,-1185.0,-924.0
243,-29.0,-818.0,-378.0,-2809.0,-1218.0,-964.0
244,74.0,-960.0,-316.0,-2916.0,-1173.0,-1004.0
245,127.0,-1035.0,-248.0,-2977.0,-1065.0,-994.0
246,120.0,-1061.0,-192.0,-3049.0,-928.0,-960.0
247,99.0,-1147.0,-153.0,-3160.0,-800.0,-922.0
248,74.0,-1302.0,-101.0,-3268.0,-690.0,-896.0
249,88.0,-1469.0,-32.0,-3323.0,-604.0,-878.0
250,161.0,-1575.0,34.0,-3320.0,-525.0,-879.0
251,319.0,-1673.0,142.0,-3322.0,-284.0,-970.0
252,-1149.0,-1521.0,1464.0,-1971.0,1329.0,-824.0
253,-1013.0,-1231.0,1684.0,-1704.0,1033.0,-337.0
254,-959.0,-1243.0,1835.0,-1515.0,831.0,-29.0
255,-989.0,-1529.0,1930.0,-1198.0,700.0,55.0
256,-1109.0,-1521.0,1922.0,-630.0,584.0,87.0
257,-1291.0,-1283.0,1794.0,-30.0,428.0,206.0
258,-1347.0,-1112.0,1578.0,423.0,168.0,483.0
259,-618.0,-1647.0,833.0,363.0,-86.0,1643.0
260,1153.0,1436.0,374.0,4332.0,-631.0,2953.0
261,-189.0,-1308.0,-13.0,2070.0,608.0,3210.0
262,-1131.0,-1640.0,-245.0,3253.0,184.0,3069.0
263,-103.0,-907.0,188.0,365.0,-1.0,253.0
264,-82.0,-956.0,155.0,296.0,11.0,207.0
265,-92.0,-987.0,130.0,269.0,15.0,206.0
266,-134.0,-939.0,163.0,268.0,17.0,192.0
267,-126.0,-937.0,159.0,231.0,5.0,149.0
268,-111.0,-946.0,151.0,199.0,-2.0,112.0
269,-102.0,-954.0,153.0,179.0,-4.0,90.0
270,-107.0,-969.0,148.0,160.0,-5.0,81.0
271,-116.0,-985.0,148.0,148.0,-7.0,70.0
272,-114.0,-987.0,148.0,141.0,-15.0,58.0
273,-112.0,-982.0,151.0,133.0,-21.0,48.0
274,-118.0,-983.0,152.0,110.0,-35.0,26.0
275,-100.0,-964.0,149.0,8.0,-41.0,-43.0
276,-93.0,-973.0,144.0,6.0,-37.0,-43.0
277,-87.0,-975.0,143.0,11.0,-34.0,-37.0
278,-89.0,-975.0,142.0,16.0,-32.0,-27.0
279,-93.0,-969.0,146.0,21.0,-28.0,-18.0
280,-95.0,-973.0,144.0,23.0,-25.0,-13.0
281,-102.0,-977.0,146.0,25.0,-23.0,-12.0
282,-103.0,-989.0,141.0,25.0,-24.0,-14.0
283,-96.0,-985.0,142.0,31.0,-27.0,-15.0
284,-99.0,-979.0,144.0,36.0,-27.0,-12.0
285,-99.0,-981.0,144.0,36.0,-30.0,-16.0
286,-83.0,-1013.0,156.0,271.0,-43.0,196.0
287,-69.0,-1066.0,157.0,272.0,-41.0,218.0
288,-81.0,-1163.0,132.0,292.0,-42.0,263.0
289,105.0,-1397.0,111.0,344.0,-57.0,350.0
290,-121.0,-1792.0,22.0,468.0,0.0,631.0
291,-162.0,-1860.0,55.0,896.0,-126.0,1116.0
292,139.0,-1959.0,76.0,1177.0,-160.0,1017.0
293,311.0,-1959.0,43.0,1534.0,-52.0,963.0
294,167.0,-1941.0,59.0,1961.0,83.0,1007.0
295,-106.0,-1889.0,-119.0,3125.0,489.0,64.0
296,213.0,-335.0,-721.0,-419.0,112.0,-634.0
297,158.0,-189.0,-668.0,-592.0,109.0,-776.0
298,91.0,-137.0,-627.0,-848.0,113.0,-858.0
299,29.0,-202.0,-586.0,-1151.0,109.0,-872.0
300,-29.0,-376.0,-516.0,-1425.0,93.0,-867.0
301,-74.0,-544.0,-425.0,-1604.0,64.0,-906.0
302,-104.0,-601.0,-344.0,-1703.0,19.0,-985.0
303,-134.0,-649.0,-283.0,-1808.0,-32.0,-1063.0
304,-148.0,-707.0,-215.0,-1939.0,-95.0,-1114.0
305,-138.0,-800.0,-149.0,-2090.0,-159.0,-1145.0
306,-103.0,-928.0,-77.0,-2225.0,-216.0,-1163.0
307,15.0,-1187.0,131.0,-2377.0,-267.0,-1248.0
308,459.0,-1225.0,542.0,-1678.0,-152.0,-837.0
309,274.0,-1421.0,535.0,-1761.0,134.0,-1765.0
310,10.0,-1362.0,520.0,-1644.0,315.0,-1892.0
311,-95.0,-1242.0,481.0,-1504.0,385.0,-1500.0
312,12.0,-1281.0,437.0,-1413.0,435.0,-1167.0
313,101.0,-1246.0,411.0,-1310.0,567.0,-1144.0
314,97.0,-1064.0,401.0,-1261.0,749.0,-1314.0
315,44.0,-1025.0,388.0,-1329.0,920.0,-1342.0
316,-21.0,-1198.0,382.0,-1373.0,1060.0,-1137.0
317,-92.0,-1345.0,394.0,-1263.0,1173.0,-961.0
318,-164.0,-1228.0,405.0,-1053.0,1263.0,-962.0
319,-553.0,-867.0,309.0,280.0,767.0,275.0
320,-187.0,-856.0,319.0,1174.0,-385.0,824.0
321,-202.0,-877.0,244.0,856.0,-266.0,592.0
322,-213.0,-952.0,172.0,558.0,-209.0,413.0
323,-69.0,-1044.0,53.0,390.0,-209.0,261.0
324,-67.0,-1000.0,47.0,375.0,-172.0,191.0
325,-72.0,-955.0,76.0,372.0,-162.0,154.0
326,-40.0,-925.0,101.0,354.0,-159.0,121.0
327,1.0,-900.0,129.0,322.0,-137.0,113.0
328,6.0,-918.0,107.0,278.0,-90.0,129.0
329,-27.0,-930.0,110.0,248.0,-39.0,142.0
330,-63.0,-966.0,99.0,217.0,-10.0,135.0
331,-62.0,-961.0,98.0,190.0,3.0,111.0
332,-66.0,-967.0,116.0,39.0,-35.0,-21.0
333,-69.0,-970.0,116.0,33.0,-34.0,-22.0
334,-72.0,-981.0,112.0,26.0,-33.0,-27.0
335,-64.0,-984.0,111.0,24.0,-35.0,-30.0
336,-66.0,-988.0,111.0,23.0,-36.0,-31.0
337,-60.0,-987.0,109.0,25.0,-37.0,-29.0
338,-65.0,-986.0,108.0,27.0,-35.0,-23.0
339,-64.0,-981.0,111.0,30.0,-35.0,-21.0
340,-63.0,-976.0,113.0,30.0,-34.0,-19.0
341,-60.0,-974.0,111.0,30.0,-32.0,-16.0
342,-65.0,-986.0,108.0,30.0,-30.0,-12.0
343,-57.0,-988.0,109.0,33.0,-31.0,-7.0
344,-61.0,-993.0,106.0,36.0,-29.0,2.0
345,-57.0,-984.0,109.0,42.0,-29.0,9.0
346,-57.0,-978.0,110.0,44.0,-25.0,18.0
347,-71.0,-984.0,114.0,42.0,-23.0,20.0
348,-78.0,-977.0,114.0,49.0,-24.0,53.0
349,-84.0,-982.0,116.0,44.0,-26.0,47.0
350,-87.0,-982.0,116.0,35.0,-30.0,36.0
351,-74.0,-981.0,118.0,27.0,-36.0,25.0
352,-71.0,-984.0,117.0,16.0,-38.0,24.0
353,-74.0,-986.0,118.0,8.0,-40.0,26.0
354,-80.0,-994.0,113.0,-2.0,-43.0,25.0
355,-89.0,-985.0,121.0,-10.0,-47.0,18.0
356,-93.0,-996.0,120.0,-31.0,-52.0,-1.0
357,-97.0,-1001.0,121.0,-52.0,-59.0,-26.0
358,288.0,-1462.0,31.0,-767.0,3874.0,-293.0
359,141.0,-1642.0,91.0,-626.0,4243.0,-538.0
360,-240.0,-1202.0,79.0,-276.0,4468.0,-582.0
361,-293.0,-1170.0,106.0,-99.0,4489.0,-501.0
362,-252.0,-1145.0,112.0,37.0,4490.0,-509.0
363,-171.0,-1040.0,61.0,144.0,4526.0,-588.0
364,-143.0,-1037.0,15.0,199.0,4614.0,-657.0
365,-146.0,-998.0,-30.0,255.0,4722.0,-690.0
366,-195.0,-952.0,-77.0,290.0,4828.0,-685.0
367,-267.0,-936.0,-114.0,304.0,4915.0,-646.0
368,-357.0,-883.0,-141.0,315.0,4974.0,-563.0
369,-482.0,-833.0,-160.0,276.0,4983.0,-276.0
370,-78.0,-975.0,-55.0,494.0,4622.0,195.0
371,-68.0,-969.0,-46.0,499.0,4568.0,201.0
372,-55.0,-1002.0,-45.0,496.0,4500.0,191.0
373,-7.0,-1048.0,-39.0,512.0,4429.0,175.0
374,27.0,-1026.0,-27.0,549.0,4384.0,168.0
375,46.0,-1041.0,-23.0,572.0,4350.0,206.0
376,33.0,-1080.0,-7.0,589.0,4317.0,251.0
377,11.0,-1049.0,1.0,606.0,4258.0,304.0
378,0.0,-1043.0,2.0,599.0,4154.0,402.0
379,-5.0,-1066.0,11.0,598.0,3993.0,529.0
380,10.0,-1066.0,26.0,614.0,3773.0,608.0
381,93.0,-1006.0,48.0,581.0,3227.0,467.0
382,-39.0,-961.0,16.0,129.0,2673.0,-352.0
383,-152.0,-972.0,118.0,146.0,2542.0,-365.0
384,-259.0,-1003.0,221.0,171.0,2341.0,-386.0
385,-346.0,-1021.0,316.0,223.0,2078.0,-421.0
386,-407.0,-1042.0,401.0,297.0,1773.0,-469.0
387,-457.0,-1047.0,465.0,396.0,1459.0,-533.0
388,-517.0,-1010.0,490.0,516.0,1153.0,-568.0
389,-587.0,-934.0,470.0,635.0,851.0,-549.0
390,-658.0,-797.0,380.0,726.0,536.0,-486.0
391,-1036.0,-668.0,454.0,715.0,238.0,-416.0
392,-550.0,600.0,502.0,563.0,-19.0,8.0
393,-1303.0,-1730.0,-280.0,-1324.0,425.0,459.0
394,-146.0,-975.0,133.0,205.0,62.0,207.0
395,-158.0,-953.0,158.0,26.0,-34.0,23.0
396,-165.0,-966.0,148.0,-1.0,-42.0,-6.0
397,-158.0,-963.0,148.0,-20.0,-51.0,-43.0
398,-146.0,-964.0,144.0,-39.0,-58.0,-73.0
399,-143.0,-963.0,144.0,-53.0,-61.0,-93.0
400,-137.0,-971.0,137.0,-66.0,-65.0,-109.0
401,-133.0,-978.0,134.0,-71.0,-67.0,-122.0
402,-138.0,-982.0,132.0,-72.0,-67.0,-133.0
403,-126.0,-984.0,129.0,-72.0,-71.0,-146.0
404,-123.0,-977.0,131.0,-70.0,-71.0,-151.0
405,-118.0,-970.0,132.0,-71.0,-72.0,-152.0
406,-109.0,-968.0,125.0,-70.0,-66.0,-132.0
407,-1959.0,1958.0,-1958.0,31360.0,32764.0,29617.0
408,-1959.0,1862.0,-1958.0,20939.0,32764.0,31722.0
409,-1183.0,1464.0,-1363.0,9477.0,31608.0,30728.0
410,346.0,798.0,-1034.0,14878.0,23200.0,25212.0
411,-834.0,972.0,-653.0,8696.0,23493.0,14519.0
412,-854.0,855.0,-633.0,5945.0,24259.0,14717.0
413,-891.0,760.0,-661.0,3313.0,24662.0,14986.0
414,-912.0,653.0,-687.0,621.0,24893.0,14978.0
415,-914.0,540.0,-706.0,-2045.0,24925.0,14700.0
416,-756.0,142.0,-806.0,-11187.0,23603.0,11355.0
417,551.0,718.0,-780.0,11695.0,-2168.0,13921.0
418,173.0,145.0,-194.0,15274.0,-5202.0,12667.0
419,253.0,301.0,-252.0,16065.0,-4031.0,12738.0
420,-509.0,-675.0,-904.0,1126.0,6116.0,9472.0
421,-150.0,-141.0,-436.0,-9527.0,4774.0,9176.0
422,-372.0,-488.0,-582.0,-6346.0,663.0,10658.0
423,-247.0,-168.0,-244.0,-2248.0,-4134.0,12238.0
424,-410.0,-342.0,-385.0,195.0,-5287.0,12440.0
425,225.0,-736.0,-1414.0,4091.0,-8094.0,12326.0
426,-198.0,-92.0,-111.0,6564.0,-4225.0,10182.0
427,194.0,88.0,-308.0,4450.0,-1424.0,8371.0
428,-23.0,-195.0,-784.0,436.0,3123.0,6649.0
429,-39.0,-12.0,-981.0,-36.0,266.0,854.0
430,-6.0,-9.0,-903.0,223.0,114.0,487.0
431,-66.0,38.0,-1020.0,-139.0,-2.0,85.0
432,-54.0,22.0,-976.0,100.0,-50.0,-7.0
433,-64.0,11.0,-950.0,91.0,-62.0,-46.0
434,-59.0,25.0,-982.0,0.0,-32.0,5.0
435,-59.0,17.0,-960.0,52.0,-38.0,-7.0
436,-60.0,22.0,-977.0,23.0,-37.0,-1.0
437,-59.0,19.0,-964.0,38.0,-35.0,-5.0
438,-60.0,20.0,-969.0,33.0,-37.0,-4.0
439,-60.0,20.0,-969.0,33.0,-37.0,-5.0
440,-59.0,20.0,-970.0,33.0,-37.0,-4.0
441,-60.0,20.0,-970.0,33.0,-37.0,-4.0
442,-59.0,20.0,-970.0,32.0,-36.0,-4.0
443,-61.0,20.0,-970.0,32.0,-37.0,-4.0
444,-60.0,20.0,-970.0,33.0,-37.0,-4.0
445,-60.0,20.0,-970.0,33.0,-36.0,-5.0
446,-59.0,20.0,-969.0,33.0,-37.0,-4.0
447,-59.0,20.0,-971.0,33.0,-37.0,-4.0
448,-60.0,20.0,-970.0,33.0,-37.0,-4.0
449,-59.0,20.0,-970.0,32.0,-36.0,-4.0
450,-59.0,19.0,-970.0,32.0,-37.0,-4.0
451,-59.0,20.0,-970.0,32.0,-37.0,-3.0
452,-60.0,20.0,-970.0,33.0,-36.0,-4.0
453,-59.0,20.0,-971.0,33.0,-37.0,-4.0
454,-59.0,20.0,-970.0,33.0,-37.0,-4.0
455,-59.0,19.0,-970.0,33.0,-37.0,-5.0
456,-59.0,21.0,-970.0,33.0,-37.0,-4.0
457,-59.0,20.0,-971.0,33.0,-36.0,-4.0
458,-59.0,21.0,-969.0,33.0,-36.0,-4.0
459,-59.0,20.0,-970.0,33.0,-37.0,-4.0
460,-59.0,20.0,-971.0,33.0,-37.0,-4.0
461,-59.0,20.0,-971.0,33.0,-37.0,-4.0
462,-60.0,20.0,-969.0,33.0,-36.0,-5.0
463,-59.0,20.0,-970.0,32.0,-36.0,-4.0
464,-59.0,20.0,-970.0,32.0,-37.0,-4.0
465,-59.0,21.0,-971.0,33.0,-36.0,-4.0
466,-60.0,21.0,-971.0,32.0,-37.0,-4.0
467,-59.0,20.0,-971.0,32.0,-36.0,-4.0
468,-60.0,20.0,-969.0,32.0,-36.0,-4.0
469,-60.0,20.0,-970.0,33.0,-36.0,-4.0
470,-60.0,20.0,-970.0,33.0,-36.0,-4.0
471,-60.0,20.0,-970.0,32.0,-36.0,-3.0