sequence,AccelerometerX,AccelerometerY,AccelerometerZ,GyroscopeX,GyroscopeY,GyroscopeZ
0,57.0,-989.0,83.0,36.0,-39.0,-10.0
1,57.0,-992.0,81.0,39.0,-39.0,-11.0
2,57.0,-989.0,84.0,43.0,-40.0,-12.0
3,59.0,-986.0,85.0,44.0,-40.0,-12.0
4,59.0,-989.0,83.0,44.0,-40.0,-10.0
5,56.0,-988.0,84.0,46.0,-40.0,-10.0
6,59.0,-984.0,87.0,47.0,-40.0,-14.0
7,63.0,-983.0,89.0,41.0,-38.0,-16.0
8,61.0,-984.0,91.0,39.0,-35.0,-14.0
9,64.0,-984.0,90.0,39.0,-36.0,-13.0
10,63.0,-986.0,90.0,37.0,-35.0,-11.0
11,62.0,-988.0,89.0,35.0,-36.0,-11.0
12,60.0,-985.0,91.0,37.0,-35.0,-11.0
13,61.0,-984.0,91.0,36.0,-36.0,-12.0
14,63.0,-983.0,90.0,35.0,-36.0,-12.0
15,65.0,-981.0,91.0,34.0,-36.0,-12.0
16,62.0,-983.0,91.0,34.0,-38.0,-10.0
17,65.0,-983.0,88.0,35.0,-38.0,-10.0
18,59.0,-991.0,88.0,38.0,-37.0,-9.0
19,70.0,-981.0,98.0,61.0,-37.0,-35.0
20,68.0,-982.0,98.0,57.0,-36.0,-28.0
21,72.0,-984.0,96.0,55.0,-35.0,-26.0
22,63.0,-982.0,100.0,50.0,-32.0,-23.0
23,70.0,-985.0,97.0,46.0,-33.0,-21.0
24,76.0,-983.0,98.0,43.0,-32.0,-16.0
25,68.0,-994.0,95.0,36.0,-29.0,-8.0
26,63.0,-998.0,94.0,37.0,-26.0,-8.0
27,67.0,-997.0,92.0,42.0,-27.0,-12.0
28,89.0,-959.0,108.0,25.0,-21.0,21.0
29,127.0,-1523.0,-22.0,233.0,93.0,-123.0
30,158.0,-1347.0,-5.0,482.0,126.0,-215.0
31,1077.0,-1202.0,-254.0,563.0,162.0,-556.0
32,631.0,-1673.0,-103.0,514.0,629.0,-896.0
33,105.0,-1128.0,-53.0,762.0,827.0,-678.0
34,153.0,-1408.0,-63.0,764.0,764.0,-535.0
35,184.0,-1205.0,-109.0,887.0,786.0,-559.0
36,219.0,-992.0,-57.0,896.0,861.0,-684.0
37,256.0,-1035.0,-102.0,768.0,978.0,-905.0
38,66.0,-850.0,-184.0,680.0,1109.0,-1019.0
39,-226.0,-713.0,-294.0,562.0,1143.0,-884.0
40,-322.0,-702.0,-447.0,399.0,908.0,-442.0
41,93.0,-845.0,-140.0,-907.0,236.0,92.0
42,-43.0,-1143.0,113.0,-1189.0,643.0,348.0
43,-76.0,-1172.0,133.0,-1150.0,603.0,272.0
44,-127.0,-1135.0,155.0,-1089.0,549.0,227.0
45,-155.0,-1114.0,168.0,-1041.0,471.0,245.0
46,-162.0,-1127.0,159.0,-990.0,384.0,294.0
47,-161.0,-1132.0,129.0,-924.0,297.0,316.0
48,-122.0,-1062.0,90.0,-847.0,210.0,334.0
49,-37.0,-989.0,45.0,-797.0,138.0,400.0
50,28.0,-965.0,17.0,-782.0,96.0,496.0
51,60.0,-962.0,9.0,-786.0,73.0,550.0
52,77.0,-1005.0,29.0,-792.0,58.0,559.0
53,48.0,-1063.0,110.0,-733.0,49.0,515.0
54,59.0,-1043.0,314.0,-87.0,486.0,36.0
55,-506.0,-1434.0,-628.0,2152.0,-12.0,523.0
56,-79.0,-1182.0,-109.0,2548.0,-183.0,55.0
57,207.0,-786.0,253.0,2514.0,-154.0,-111.0
58,-13.0,-670.0,439.0,2078.0,-28.0,-50.0
59,91.0,-873.0,173.0,1570.0,-75.0,-48.0
60,117.0,-922.0,136.0,1302.0,-35.0,-21.0
61,-36.0,-761.0,294.0,1113.0,-53.0,86.0
62,-3.0,-858.0,195.0,823.0,-134.0,95.0
63,-43.0,-1019.0,56.0,611.0,-87.0,-1.0
64,-42.0,-1011.0,43.0,557.0,-72.0,-90.0
65,12.0,-976.0,68.0,370.0,-87.0,-227.0
66,50.0,-959.0,83.0,66.0,-36.0,36.0
67,30.0,-975.0,83.0,58.0,-32.0,41.0
68,37.0,-991.0,75.0,54.0,-34.0,36.0
69,36.0,-999.0,74.0,53.0,-34.0,34.0
70,37.0,-995.0,77.0,51.0,-33.0,34.0
71,39.0,-995.0,78.0,47.0,-34.0,36.0
72,37.0,-1008.0,74.0,41.0,-33.0,39.0
73,37.0,-1002.0,77.0,42.0,-31.0,39.0
74,37.0,-998.0,79.0,35.0,-28.0,38.0
75,30.0,-997.0,79.0,29.0,-25.0,38.0
76,23.0,-992.0,80.0,23.0,-26.0,33.0
77,31.0,-985.0,81.0,16.0,-29.0,16.0
78,36.0,-988.0,71.0,24.0,-44.0,-32.0
79,37.0,-982.0,74.0,26.0,-43.0,-32.0
80,45.0,-982.0,74.0,26.0,-45.0,-27.0
81,44.0,-986.0,74.0,24.0,-43.0,-17.0
82,36.0,-994.0,71.0,20.0,-40.0,-8.0
83,30.0,-996.0,70.0,21.0,-38.0,-6.0
84,26.0,-996.0,71.0,23.0,-39.0,-12.0
85,36.0,-993.0,70.0,26.0,-40.0,-18.0
86,39.0,-996.0,70.0,28.0,-41.0,-18.0
87,35.0,-996.0,71.0,30.0,-39.0,-17.0
88,32.0,-1003.0,69.0,35.0,-39.0,-18.0
89,36.0,-996.0,69.0,49.0,-41.0,-27.0
90,144.0,-1491.0,-21.0,762.0,-32.0,-434.0
91,104.0,-1249.0,97.0,961.0,-8.0,-393.0
92,148.0,-1481.0,39.0,1026.0,-40.0,-265.0
93,57.0,-1439.0,57.0,1219.0,-25.0,-165.0
94,155.0,-1554.0,71.0,1359.0,-56.0,-65.0
95,303.0,-1559.0,57.0,1505.0,-39.0,-63.0
96,412.0,-1623.0,20.0,1659.0,44.0,-61.0
97,-25.0,-1770.0,29.0,1826.0,167.0,-22.0
98,334.0,-1822.0,-48.0,2088.0,68.0,108.0
99,116.0,-1685.0,30.0,2351.0,166.0,158.0
100,230.0,-1850.0,-56.0,2526.0,110.0,306.0
101,-178.0,1192.0,141.0,1766.0,-892.0,731.0
102,49.0,-445.0,-553.0,-2890.0,184.0,26.0
103,31.0,-572.0,-514.0,-3095.0,252.0,263.0
104,36.0,-703.0,-464.0,-3276.0,324.0,389.0
105,27.0,-814.0,-410.0,-3437.0,414.0,397.0
106,-26.0,-901.0,-350.0,-3584.0,500.0,356.0
107,-132.0,-1008.0,-282.0,-3721.0,555.0,328.0
108,-262.0,-1172.0,-182.0,-3827.0,540.0,353.0
109,-429.0,-1352.0,-61.0,-3872.0,446.0,401.0
110,-533.0,-1466.0,46.0,-3848.0,251.0,469.0
111,-326.0,-1644.0,156.0,-3994.0,-559.0,917.0
112,397.0,-747.0,198.0,3534.0,653.0,-1100.0
113,-228.0,-879.0,266.0,3074.0,514.0,-598.0
114,50.0,-880.0,205.0,2642.0,-7.0,-470.0
115,209.0,-882.0,126.0,2251.0,-114.0,-374.0
116,104.0,-869.0,148.0,1937.0,-2.0,-259.0
117,30.0,-876.0,161.0,1660.0,100.0,-235.0
118,-97.0,-765.0,306.0,1418.0,82.0,-254.0
119,-32.0,-763.0,236.0,1127.0,-85.0,-268.0
120,47.0,-882.0,95.0,876.0,-126.0,-291.0
121,-12.0,-938.0,57.0,772.0,-90.0,-313.0
122,11.0,-885.0,106.0,734.0,-102.0,-350.0
123,96.0,-878.0,155.0,644.0,-127.0,-336.0
124,73.0,-928.0,121.0,521.0,-115.0,-272.0
125,64.0,-996.0,67.0,428.0,-96.0,-238.0
126,82.0,-977.0,106.0,95.0,-29.0,-80.0
127,70.0,-982.0,105.0,66.0,-20.0,-51.0
128,54.0,-985.0,101.0,56.0,-19.0,-53.0
129,56.0,-983.0,100.0,58.0,-24.0,-69.0
130,59.0,-983.0,101.0,66.0,-30.0,-83.0
131,66.0,-988.0,99.0,73.0,-34.0,-95.0
132,76.0,-991.0,101.0,79.0,-37.0,-101.0
133,76.0,-994.0,100.0,83.0,-37.0,-101.0
134,56.0,-1032.0,94.0,158.0,-40.0,-165.0
135,138.0,-1006.0,129.0,221.0,-52.0,-185.0
136,108.0,-1023.0,131.0,222.0,-46.0,-179.0
137,95.0,-1053.0,122.0,226.0,-50.0,-194.0
138,78.0,-1033.0,133.0,245.0,-56.0,-225.0
139,144.0,-1036.0,129.0,257.0,-70.0,-254.0
140,177.0,-1081.0,115.0,278.0,-60.0,-263.0
141,163.0,-1085.0,128.0,322.0,-37.0,-270.0
142,169.0,-1145.0,119.0,367.0,-19.0,-277.0
143,138.0,-1130.0,121.0,439.0,-3.0,-266.0
144,164.0,-1172.0,119.0,492.0,-7.0,-278.0
145,111.0,-1194.0,140.0,545.0,13.0,-343.0
146,177.0,-1308.0,112.0,737.0,16.0,-323.0
147,-138.0,-1959.0,-2.0,3130.0,14.0,62.0
148,-158.0,-1959.0,-72.0,3523.0,-108.0,141.0
149,-42.0,-1959.0,-238.0,3792.0,-209.0,-55.0
150,-264.0,-1959.0,-252.0,4137.0,-235.0,-294.0
151,-214.0,-1959.0,-334.0,4491.0,-336.0,-350.0
152,-342.0,-1959.0,-381.0,4795.0,-403.0,-318.0
153,46.0,-1959.0,-444.0,5045.0,-575.0,-338.0
154,-629.0,-1959.0,-697.0,5293.0,-502.0,-428.0
155,-407.0,-1959.0,-626.0,5535.0,-803.0,-471.0
156,-19.0,-44.0,-779.0,5761.0,-786.0,-1117.0
157,260.0,1924.0,-579.0,5231.0,-763.0,-1014.0
158,58.0,904.0,437.0,1233.0,-142.0,-115.0
159,66.0,-266.0,-354.0,-2553.0,797.0,203.0
160,24.0,-377.0,-342.0,-2837.0,823.0,361.0
161,-5.0,-511.0,-319.0,-3079.0,820.0,503.0
162,-38.0,-665.0,-289.0,-3278.0,802.0,511.0
163,-80.0,-789.0,-242.0,-3425.0,764.0,411.0
164,-128.0,-871.0,-189.0,-3528.0,697.0,300.0
165,-182.0,-926.0,-131.0,-3610.0,602.0,256.0
166,-207.0,-1005.0,-84.0,-3684.0,481.0,300.0
167,-231.0,-1131.0,-26.0,-3736.0,351.0,407.0
168,-295.0,-1317.0,52.0,-3747.0,220.0,511.0
169,-418.0,-1465.0,176.0,-3688.0,65.0,573.0
170,-613.0,-1379.0,376.0,-3493.0,-430.0,787.0
171,143.0,-1641.0,1223.0,-2856.0,554.0,940.0
172,-85.0,-1542.0,1364.0,-2643.0,469.0,674.0
173,-251.0,-1526.0,1511.0,-2411.0,267.0,544.0
174,-309.0,-1545.0,1654.0,-2097.0,-19.0,568.0
175,-240.0,-1500.0,1765.0,-1695.0,-341.0,680.0
176,-48.0,-1441.0,1814.0,-1256.0,-649.0,789.0
177,226.0,-1444.0,1793.0,-823.0,-896.0,820.0
178,492.0,-1406.0,1711.0,-390.0,-1036.0,714.0
179,646.0,-1381.0,1586.0,4.0,-1051.0,441.0
180,-149.0,-1144.0,-1123.0,2287.0,-42.0,-2648.0
181,31.0,-871.0,135.0,579.0,-95.0,-267.0
182,25.0,-961.0,91.0,501.0,-100.0,-260.0
183,21.0,-894.0,135.0,481.0,-106.0,-280.0
184,82.0,-916.0,117.0,428.0,-117.0,-277.0
185,62.0,-946.0,113.0,377.0,-109.0,-249.0
186,92.0,-949.0,113.0,340.0,-107.0,-232.0
187,125.0,-961.0,105.0,298.0,-95.0,-195.0
188,109.0,-971.0,114.0,259.0,-76.0,-135.0
189,82.0,-986.0,112.0,217.0,-59.0,-91.0
190,78.0,-995.0,108.0,185.0,-49.0,-70.0
191,85.0,-983.0,115.0,161.0,-39.0,-54.0
192,78.0,-987.0,110.0,110.0,-19.0,-16.0
193,58.0,-985.0,110.0,69.0,0.0,-52.0
194,83.0,-972.0,120.0,116.0,-42.0,-61.0
195,84.0,-978.0,121.0,114.0,-41.0,-59.0
196,74.0,-988.0,118.0,115.0,-41.0,-58.0
197,77.0,-1004.0,115.0,118.0,-43.0,-64.0
198,69.0,-1026.0,107.0,130.0,-44.0,-70.0
199,58.0,-1044.0,106.0,154.0,-46.0,-80.0
200,39.0,-1069.0,108.0,184.0,-49.0,-101.0
201,52.0,-1060.0,113.0,217.0,-58.0,-128.0
202,75.0,-1059.0,119.0,240.0,-65.0,-153.0
203,82.0,-1070.0,120.0,259.0,-63.0,-171.0
204,84.0,-1080.0,115.0,293.0,-68.0,-160.0
205,128.0,-1071.0,119.0,354.0,-77.0,-179.0
206,287.0,-1456.0,111.0,1189.0,47.0,-111.0
207,-129.0,-1959.0,-334.0,4629.0,-466.0,599.0
208,54.0,-1959.0,-499.0,4968.0,-561.0,415.0
209,-105.0,-1935.0,-535.0,5331.0,-549.0,362.0
210,-530.0,-1949.0,-527.0,5465.0,-599.0,286.0
211,-52.0,-454.0,-656.0,5555.0,-767.0,-131.0
212,313.0,1495.0,-315.0,5167.0,-801.0,-470.0
213,145.0,823.0,-1381.0,3907.0,-616.0,-844.0
214,195.0,1891.0,336.0,2514.0,-565.0,-83.0
215,430.0,-611.0,-521.0,287.0,-441.0,769.0
216,167.0,-719.0,-1077.0,-270.0,-34.0,366.0
217,-54.0,-604.0,-589.0,-436.0,96.0,-346.0
218,122.0,32.0,-544.0,-389.0,59.0,-650.0
219,-111.0,-712.0,-264.0,-3480.0,496.0,-185.0
220,-206.0,-828.0,-197.0,-3670.0,454.0,-136.0
221,-357.0,-1078.0,-114.0,-3817.0,367.0,-25.0
222,-457.0,-1249.0,-5.0,-3843.0,201.0,88.0
223,-447.0,-1307.0,63.0,-3800.0,-27.0,210.0
224,-349.0,-1387.0,83.0,-3770.0,-243.0,318.0
225,-185.0,-1506.0,106.0,-3753.0,-389.0,390.0
226,-47.0,-1594.0,146.0,-3737.0,-435.0,449.0
227,86.0,-1664.0,213.0,-3740.0,-396.0,498.0
228,187.0,-1704.0,299.0,-3760.0,-271.0,533.0
229,221.0,-1734.0,379.0,-3800.0,-74.0,594.0
230,354.0,-1685.0,487.0,-3906.0,409.0,826.0
231,134.0,-1538.0,1925.0,-673.0,-1304.0,1062.0
232,517.0,-1379.0,1719.0,-247.0,-1505.0,679.0
233,620.0,-1282.0,1491.0,25.0,-1462.0,-41.0
234,585.0,-1217.0,1288.0,236.0,-1287.0,-735.0
235,434.0,-1063.0,1111.0,434.0,-1029.0,-1127.0
236,974.0,-1134.0,183.0,544.0,-929.0,-777.0
237,21.0,-81.0,-646.0,3838.0,238.0,-293.0
238,-176.0,-333.0,-301.0,3072.0,202.0,-186.0
239,-338.0,-1315.0,-522.0,3406.0,370.0,-403.0
240,126.0,-862.0,122.0,3753.0,224.0,-701.0
241,267.0,-641.0,369.0,3423.0,239.0,-615.0
242,3.0,-784.0,245.0,2159.0,22.0,-318.0
243,62.0,-969.0,104.0,91.0,-52.0,-116.0
244,66.0,-974.0,98.0,83.0,-53.0,-109.0
245,69.0,-964.0,105.0,79.0,-51.0,-103.0
246,66.0,-967.0,104.0,69.0,-51.0,-96.0
247,73.0,-980.0,97.0,63.0,-51.0,-89.0
248,71.0,-983.0,99.0,62.0,-49.0,-82.0
249,71.0,-975.0,102.0,61.0,-46.0,-76.0
250,77.0,-970.0,103.0,56.0,-46.0,-70.0
251,78.0,-970.0,105.0,50.0,-46.0,-59.0
252,73.0,-980.0,101.0,43.0,-44.0,-48.0
253,71.0,-979.0,101.0,41.0,-44.0,-43.0
254,79.0,-974.0,101.0,45.0,-46.0,-36.0
255,72.0,-1002.0,103.0,60.0,-26.0,-35.0
256,68.0,-1015.0,93.0,69.0,-20.0,-52.0
257,65.0,-1018.0,94.0,80.0,-18.0,-62.0
258,65.0,-1026.0,91.0,94.0,-17.0,-74.0
259,67.0,-1029.0,92.0,112.0,-17.0,-88.0
260,62.0,-1033.0,93.0,133.0,-16.0,-104.0
261,63.0,-1041.0,91.0,155.0,-13.0,-125.0
262,55.0,-1047.0,95.0,179.0,-13.0,-147.0
263,208.0,-1916.0,31.0,1445.0,75.0,-272.0
264,116.0,-1949.0,-74.0,1728.0,115.0,-250.0
265,316.0,-1959.0,-98.0,2726.0,87.0,20.0
266,138.0,-1959.0,-190.0,3067.0,98.0,223.0
267,134.0,-1959.0,-215.0,3393.0,21.0,397.0
268,-121.0,-1959.0,-269.0,3815.0,0.0,459.0
269,-208.0,-1942.0,-164.0,4225.0,-172.0,677.0
270,35.0,-1959.0,-364.0,4359.0,-305.0,329.0
271,-329.0,-1908.0,-330.0,4770.0,-245.0,135.0
272,-406.0,-1496.0,-433.0,5057.0,-439.0,574.0
273,191.0,-1393.0,-322.0,5056.0,-689.0,732.0
274,-268.0,-1215.0,-487.0,4934.0,-602.0,401.0
275,313.0,611.0,-351.0,4920.0,-761.0,176.0
276,-326.0,1616.0,-659.0,3059.0,-1094.0,1280.0
277,-264.0,-1307.0,-35.0,-3407.0,100.0,94.0
278,-262.0,-1309.0,-23.0,-3434.0,7.0,181.0
279,-220.0,-1336.0,-26.0,-3495.0,-81.0,273.0
280,-167.0,-1395.0,-22.0,-3576.0,-145.0,397.0
281,-122.0,-1471.0,-20.0,-3664.0,-176.0,515.0
282,-68.0,-1576.0,-13.0,-3748.0,-180.0,582.0
283,-27.0,-1670.0,1.0,-3802.0,-153.0,620.0
284,18.0,-1717.0,25.0,-3832.0,-104.0,654.0
285,35.0,-1812.0,66.0,-3854.0,-35.0,676.0
286,2.0,-1937.0,128.0,-3841.0,44.0,670.0
287,-63.0,-1959.0,212.0,-3759.0,109.0,632.0
288,-266.0,-1923.0,427.0,-3494.0,150.0,555.0
289,477.0,-1001.0,1299.0,686.0,-6.0,-924.0
290,180.0,-1115.0,975.0,738.0,188.0,-979.0
291,741.0,203.0,503.0,2554.0,488.0,-1710.0
292,365.0,-317.0,-1122.0,3815.0,992.0,-1784.0
293,-513.0,-1145.0,-224.0,4464.0,889.0,-1289.0
294,-87.0,-1084.0,-215.0,4261.0,550.0,-1205.0
295,121.0,-757.0,310.0,4146.0,298.0,-1150.0
296,215.0,-589.0,583.0,3553.0,94.0,-927.0
297,183.0,-773.0,262.0,2826.0,-12.0,-640.0
298,114.0,-860.0,209.0,2334.0,-51.0,-448.0
299,-117.0,-650.0,465.0,1977.0,-115.0,-360.0
300,163.0,-985.0,120.0,1076.0,-87.0,-552.0
301,118.0,-981.0,119.0,245.0,-51.0,-198.0
302,126.0,-969.0,123.0,214.0,-43.0,-170.0
303,128.0,-956.0,128.0,180.0,-36.0,-135.0
304,136.0,-950.0,128.0,139.0,-30.0,-97.0
305,130.0,-951.0,127.0,105.0,-23.0,-58.0
306,120.0,-953.0,127.0,77.0,-17.0,-29.0
307,116.0,-957.0,125.0,53.0,-15.0,-9.0
308,115.0,-957.0,121.0,35.0,-13.0,4.0
309,103.0,-962.0,119.0,22.0,-11.0,13.0
310,92.0,-965.0,119.0,14.0,-13.0,15.0
311,91.0,-960.0,119.0,10.0,-17.0,7.0
312,97.0,-965.0,116.0,6.0,-27.0,-6.0
313,107.0,-967.0,113.0,3.0,-42.0,-1.0
314,118.0,-963.0,115.0,-1.0,-44.0,7.0
315,110.0,-967.0,112.0,-11.0,-43.0,22.0
316,110.0,-958.0,116.0,-19.0,-42.0,31.0
317,119.0,-958.0,114.0,-29.0,-44.0,42.0
318,100.0,-994.0,101.0,-39.0,-41.0,56.0
319,85.0,-1001.0,100.0,-33.0,-40.0,50.0
320,92.0,-996.0,100.0,-23.0,-42.0,33.0
321,88.0,-1028.0,85.0,-12.0,-43.0,22.0
322,85.0,-1024.0,90.0,13.0,-43.0,4.0
323,99.0,-1007.0,96.0,33.0,-43.0,-13.0
324,101.0,-996.0,101.0,47.0,-39.0,-10.0
325,302.0,-1950.0,-12.0,1603.0,-61.0,-606.0
326,202.0,-1956.0,-15.0,1900.0,-24.0,-510.0
327,182.0,-1959.0,-38.0,2200.0,-5.0,-454.0
328,82.0,-1959.0,-82.0,2510.0,8.0,-406.0
329,-14.0,-1959.0,-87.0,2840.0,-37.0,-289.0
330,-145.0,-1870.0,-98.0,3177.0,-131.0,-53.0
331,-128.0,-1927.0,-75.0,3460.0,-303.0,318.0
332,-76.0,-1922.0,-182.0,3722.0,-447.0,492.0
333,-84.0,-1813.0,-205.0,3935.0,-500.0,276.0
334,-262.0,-1869.0,-109.0,4025.0,-541.0,-5.0
335,-243.0,-1787.0,-351.0,4185.0,-683.0,-73.0
336,-384.0,-1549.0,-345.0,4397.0,-793.0,-155.0
337,-422.0,-1526.0,-272.0,4509.0,-915.0,-401.0
338,-531.0,-164.0,-172.0,4689.0,-1054.0,-562.0
339,-235.0,600.0,-10.0,4351.0,-1296.0,-525.0
340,-486.0,1557.0,-1143.0,3272.0,-1565.0,-186.0
341,202.0,-262.0,-297.0,-1799.0,412.0,912.0
342,128.0,-388.0,-276.0,-2086.0,497.0,930.0
343,51.0,-529.0,-238.0,-2317.0,529.0,953.0
344,-39.0,-677.0,-181.0,-2485.0,507.0,958.0
345,-85.0,-804.0,-118.0,-2581.0,423.0,955.0
346,-71.0,-901.0,-70.0,-2621.0,299.0,967.0
347,-52.0,-939.0,-22.0,-2635.0,177.0,988.0
348,-32.0,-914.0,39.0,-2665.0,64.0,1016.0
349,-6.0,-921.0,98.0,-2751.0,-34.0,1048.0
350,29.0,-1042.0,135.0,-2874.0,-101.0,1051.0
351,83.0,-1220.0,160.0,-2956.0,-132.0,1037.0
352,106.0,-1364.0,195.0,-2958.0,-116.0,1022.0
353,74.0,-1434.0,229.0,-2905.0,-70.0,996.0
354,58.0,-1455.0,266.0,-2825.0,-38.0,999.0
355,98.0,-1453.0,304.0,-2744.0,-17.0,1060.0
356,239.0,-1395.0,346.0,-2669.0,101.0,1262.0
357,-259.0,-1390.0,674.0,-2194.0,849.0,664.0
358,-250.0,-1423.0,837.0,-1787.0,396.0,807.0
359,-170.0,-1395.0,962.0,-1504.0,148.0,884.0
360,-2.0,-1293.0,1121.0,-1192.0,-94.0,977.0
361,272.0,-1179.0,1264.0,-894.0,-301.0,1064.0
362,538.0,-1191.0,1316.0,-632.0,-417.0,1017.0
363,635.0,-1356.0,1264.0,-354.0,-424.0,712.0
364,552.0,-1416.0,1132.0,-11.0,-371.0,168.0
365,332.0,-1210.0,987.0,327.0,-332.0,-399.0
366,125.0,-1012.0,862.0,537.0,-359.0,-772.0
367,25.0,-944.0,71.0,679.0,-42.0,-305.0
368,90.0,-949.0,67.0,220.0,-71.0,-111.0
369,80.0,-947.0,70.0,193.0,-65.0,-95.0
370,77.0,-969.0,65.0,167.0,-62.0,-88.0
371,90.0,-984.0,68.0,144.0,-60.0,-79.0
372,100.0,-995.0,63.0,118.0,-55.0,-61.0
373,102.0,-988.0,67.0,98.0,-49.0,-30.0
374,94.0,-968.0,80.0,71.0,-42.0,-3.0
375,80.0,-980.0,72.0,35.0,-36.0,16.0
376,67.0,-993.0,60.0,16.0,-35.0,21.0
377,73.0,-986.0,66.0,11.0,-36.0,14.0
378,77.0,-986.0,66.0,-24.0,-32.0,19.0
379,73.0,-988.0,47.0,39.0,-43.0,-26.0
380,77.0,-981.0,50.0,44.0,-44.0,-27.0
381,80.0,-983.0,49.0,44.0,-44.0,-25.0
382,75.0,-992.0,46.0,46.0,-45.0,-22.0
383,67.0,-993.0,46.0,52.0,-45.0,-26.0
384,70.0,-987.0,52.0,60.0,-46.0,-36.0
385,73.0,-989.0,51.0,62.0,-47.0,-44.0
386,77.0,-990.0,50.0,63.0,-47.0,-49.0
387,85.0,-987.0,51.0,62.0,-46.0,-48.0
388,87.0,-985.0,55.0,59.0,-45.0,-39.0
389,87.0,-988.0,55.0,51.0,-42.0,-28.0
390,84.0,-989.0,53.0,36.0,-37.0,-6.0
391,80.0,-1006.0,53.0,45.0,-28.0,8.0
392,66.0,-1040.0,39.0,56.0,-22.0,4.0
393,79.0,-1050.0,41.0,69.0,-21.0,-8.0
394,98.0,-1074.0,37.0,76.0,-15.0,-8.0
395,73.0,-1083.0,40.0,79.0,4.0,-5.0
396,38.0,-1103.0,38.0,75.0,28.0,-37.0
397,-76.0,-1232.0,6.0,65.0,60.0,-129.0
398,-52.0,-1268.0,-3.0,118.0,57.0,-284.0
399,-64.0,-1696.0,-106.0,205.0,53.0,-470.0
400,-397.0,-1797.0,-62.0,511.0,43.0,-746.0
401,105.0,-77.0,-447.0,2422.0,1.0,-1047.0
402,4.0,-361.0,-397.0,-669.0,394.0,107.0
403,19.0,-338.0,-378.0,-931.0,358.0,156.0
404,14.0,-435.0,-367.0,-1236.0,336.0,169.0
405,-5.0,-596.0,-346.0,-1500.0,314.0,130.0
406,-12.0,-674.0,-309.0,-1663.0,284.0,104.0
407,-21.0,-697.0,-272.0,-1780.0,258.0,140.0
408,-26.0,-754.0,-235.0,-1903.0,236.0,198.0
409,-37.0,-844.0,-199.0,-2024.0,224.0,234.0
410,-69.0,-949.0,-155.0,-2118.0,218.0,246.0
411,-167.0,-1169.0,23.0,-2287.0,99.0,474.0
412,119.0,-1644.0,356.0,-1083.0,330.0,1091.0
413,154.0,-1440.0,412.0,-837.0,388.0,1064.0
414,175.0,-1219.0,476.0,-733.0,456.0,996.0
415,189.0,-1157.0,510.0,-744.0,514.0,963.0
416,162.0,-1195.0,567.0,-754.0,556.0,1010.0
417,126.0,-1228.0,652.0,-715.0,567.0,1080.0
418,102.0,-1216.0,765.0,-646.0,546.0,1089.0
419,141.0,-970.0,882.0,-629.0,497.0,943.0
420,120.0,-701.0,930.0,-766.0,450.0,673.0
421,64.0,-704.0,945.0,-991.0,369.0,477.0
422,42.0,-903.0,978.0,-1123.0,240.0,445.0
423,93.0,-1090.0,1117.0,-857.0,-43.0,601.0
424,138.0,-1058.0,24.0,79.0,-28.0,221.0
425,95.0,-1091.0,6.0,89.0,-22.0,264.0
426,10.0,-1082.0,18.0,138.0,-25.0,259.0
427,-15.0,-1019.0,45.0,183.0,-36.0,177.0
428,-10.0,-995.0,44.0,204.0,-41.0,64.0
429,4.0,-986.0,47.0,218.0,-46.0,-43.0
430,23.0,-1023.0,23.0,233.0,-46.0,-138.0
431,106.0,-965.0,50.0,265.0,-49.0,-198.0
432,114.0,-943.0,71.0,264.0,-41.0,-185.0
433,134.0,-967.0,64.0,238.0,-36.0,-142.0
434,112.0,-953.0,77.0,212.0,-25.0,-95.0
435,71.0,-967.0,69.0,158.0,-27.0,-61.0
436,72.0,-1004.0,58.0,-9.0,-21.0,29.0
437,76.0,-993.0,61.0,1.0,-25.0,12.0
438,75.0,-990.0,63.0,8.0,-27.0,-3.0
439,84.0,-977.0,65.0,14.0,-31.0,-15.0
440,89.0,-969.0,68.0,15.0,-34.0,-21.0
441,93.0,-966.0,69.0,11.0,-37.0,-21.0
442,90.0,-972.0,65.0,10.0,-39.0,-15.0
443,91.0,-969.0,67.0,9.0,-42.0,-13.0
444,87.0,-977.0,64.0,7.0,-44.0,-9.0
445,81.0,-981.0,63.0,7.0,-47.0,-12.0
446,84.0,-986.0,61.0,10.0,-50.0,-21.0
447,76.0,-993.0,54.0,27.0,-56.0,-48.0
448,126.0,-984.0,80.0,93.0,-48.0,-57.0
449,126.0,-988.0,77.0,87.0,-44.0,-49.0
450,130.0,-981.0,80.0,85.0,-40.0,-43.0
451,122.0,-973.0,84.0,79.0,-36.0,-35.0
452,124.0,-969.0,86.0,72.0,-34.0,-30.0
453,124.0,-964.0,89.0,62.0,-33.0,-26.0
454,124.0,-970.0,84.0,50.0,-33.0,-19.0
455,123.0,-972.0,82.0,43.0,-33.0,-12.0
456,122.0,-962.0,85.0,22.0,-38.0,-2.0
457,119.0,-981.0,76.0,-26.0,-33.0,37.0
458,124.0,-972.0,73.0,11.0,-25.0,0.0
459,119.0,-973.0,73.0,6.0,-24.0,11.0