sequence,AccelerometerX,AccelerometerY,AccelerometerZ,GyroscopeX,GyroscopeY,GyroscopeZ
0,-149.0,-981.0,3.0,33.0,-37.0,-5.0
1,-150.0,-981.0,4.0,33.0,-38.0,-5.0
2,-151.0,-980.0,6.0,34.0,-37.0,-5.0
3,-151.0,-982.0,4.0,33.0,-38.0,-9.0
4,-149.0,-980.0,6.0,35.0,-36.0,0.0
5,-147.0,-981.0,5.0,34.0,-36.0,-1.0
6,-151.0,-979.0,8.0,35.0,-36.0,0.0
7,-151.0,-979.0,6.0,33.0,-36.0,-2.0
8,-147.0,-980.0,5.0,32.0,-37.0,-3.0
9,-147.0,-981.0,5.0,32.0,-37.0,-3.0
10,-148.0,-981.0,4.0,32.0,-37.0,-3.0
11,-149.0,-980.0,6.0,32.0,-36.0,-3.0
12,-149.0,-980.0,6.0,30.0,-36.0,-2.0
13,-149.0,-983.0,3.0,33.0,-36.0,-2.0
14,-150.0,-980.0,6.0,33.0,-36.0,-1.0
15,-149.0,-981.0,4.0,33.0,-37.0,0.0
16,-149.0,-980.0,6.0,33.0,-36.0,-1.0
17,-151.0,-981.0,6.0,33.0,-36.0,-1.0
18,-149.0,-980.0,5.0,33.0,-36.0,-1.0
19,-150.0,-982.0,6.0,32.0,-37.0,-2.0
20,-150.0,-981.0,5.0,32.0,-37.0,-2.0
21,-150.0,-981.0,5.0,31.0,-36.0,-2.0
22,-151.0,-982.0,5.0,31.0,-37.0,-3.0
23,-152.0,-979.0,5.0,32.0,-37.0,-5.0
24,-152.0,-979.0,6.0,31.0,-37.0,-6.0
25,-152.0,-979.0,5.0,30.0,-38.0,-8.0
26,-152.0,-987.0,4.0,-18.0,-55.0,-103.0
27,-158.0,-987.0,3.0,-20.0,-57.0,-112.0
28,-163.0,-990.0,1.0,-21.0,-58.0,-134.0
29,-151.0,-1002.0,-5.0,-19.0,-62.0,-155.0
30,-184.0,-1040.0,-10.0,-13.0,-59.0,-177.0
31,-184.0,-1044.0,-15.0,6.0,-63.0,-227.0
32,-171.0,-1059.0,-15.0,25.0,-66.0,-282.0
33,-140.0,-1049.0,-14.0,42.0,-62.0,-335.0
34,-134.0,-1078.0,-21.0,48.0,-42.0,-414.0
35,-206.0,-1128.0,-16.0,59.0,-1.0,-542.0
36,-125.0,-1308.0,-71.0,113.0,-24.0,-632.0
37,-323.0,-1280.0,-46.0,337.0,104.0,-812.0
38,8.0,-984.0,-23.0,859.0,-747.0,-469.0
39,66.0,-613.0,-77.0,818.0,-666.0,-578.0
40,54.0,-452.0,-214.0,619.0,-551.0,-607.0
41,73.0,-579.0,-337.0,367.0,-422.0,-451.0
42,225.0,-821.0,-236.0,209.0,-231.0,-277.0
43,-222.0,-730.0,-244.0,142.0,30.0,-91.0
44,-207.0,-638.0,-310.0,18.0,5.0,59.0
45,-194.0,-842.0,-283.0,-126.0,-55.0,85.0
46,-144.0,-895.0,-269.0,-166.0,-120.0,89.0
47,-76.0,-869.0,-264.0,-171.0,-177.0,108.0
48,-23.0,-867.0,-259.0,-183.0,-209.0,140.0
49,40.0,-916.0,-250.0,-197.0,-222.0,173.0
50,82.0,-1050.0,-71.0,-867.0,-21.0,165.0
51,-4.0,-1143.0,-44.0,-850.0,98.0,170.0
52,-116.0,-1189.0,-10.0,-777.0,178.0,126.0
53,-196.0,-1140.0,34.0,-692.0,179.0,20.0
54,-235.0,-1035.0,62.0,-645.0,98.0,-106.0
55,-223.0,-927.0,68.0,-660.0,-42.0,-148.0
56,-121.0,-868.0,41.0,-730.0,-199.0,-31.0
57,21.0,-921.0,15.0,-820.0,-296.0,133.0
58,131.0,-989.0,9.0,-877.0,-289.0,219.0
59,203.0,-1030.0,21.0,-892.0,-195.0,220.0
60,229.0,-1066.0,42.0,-876.0,-48.0,245.0
61,277.0,-1140.0,95.0,-752.0,289.0,554.0
62,387.0,-877.0,271.0,-80.0,-229.0,707.0
63,-626.0,-1237.0,-120.0,2036.0,-496.0,1084.0
64,-119.0,-1028.0,-17.0,2020.0,-584.0,483.0
65,-359.0,-818.0,224.0,1808.0,-477.0,282.0
66,62.0,-406.0,500.0,1439.0,-439.0,73.0
67,-54.0,-727.0,248.0,808.0,-123.0,-32.0
68,-174.0,-958.0,105.0,378.0,-56.0,23.0
69,-218.0,-1149.0,-99.0,232.0,-67.0,1.0
70,-149.0,-1001.0,-28.0,288.0,-101.0,-64.0
71,-144.0,-943.0,9.0,290.0,-84.0,-123.0
72,-119.0,-923.0,14.0,275.0,-73.0,-180.0
73,-72.0,-884.0,45.0,250.0,-84.0,-172.0
74,-81.0,-954.0,11.0,152.0,-67.0,-100.0
75,-105.0,-974.0,10.0,98.0,-44.0,-84.0
76,-94.0,-978.0,6.0,95.0,-42.0,-82.0
77,-93.0,-978.0,8.0,96.0,-41.0,-67.0
78,-90.0,-977.0,11.0,92.0,-40.0,-47.0
79,-99.0,-983.0,10.0,87.0,-39.0,-28.0
80,-96.0,-988.0,9.0,83.0,-38.0,-16.0
81,-101.0,-990.0,10.0,81.0,-38.0,-1.0
82,-106.0,-1001.0,4.0,77.0,-37.0,10.0
83,-110.0,-1004.0,3.0,80.0,-38.0,15.0
84,-109.0,-988.0,14.0,54.0,-39.0,25.0
85,-104.0,-987.0,14.0,54.0,-40.0,29.0
86,-111.0,-988.0,14.0,56.0,-40.0,36.0
87,-107.0,-985.0,16.0,60.0,-41.0,41.0
88,-110.0,-986.0,16.0,62.0,-42.0,46.0
89,-112.0,-988.0,15.0,63.0,-42.0,52.0
90,-116.0,-984.0,17.0,67.0,-41.0,55.0
91,-118.0,-985.0,18.0,70.0,-42.0,53.0
92,-118.0,-988.0,19.0,71.0,-42.0,49.0
93,-118.0,-995.0,17.0,82.0,-43.0,29.0
94,-105.0,-1005.0,22.0,126.0,-34.0,-7.0
95,-119.0,-983.0,35.0,140.0,-29.0,1.0
96,-114.0,-990.0,32.0,142.0,-27.0,7.0
97,-134.0,-998.0,33.0,145.0,-25.0,7.0
98,-138.0,-1017.0,27.0,148.0,-28.0,-4.0
99,-157.0,-1029.0,33.0,159.0,-32.0,-18.0
100,-121.0,-1044.0,25.0,176.0,-37.0,-42.0
101,-135.0,-1058.0,23.0,202.0,-34.0,-59.0
102,-109.0,-1072.0,12.0,236.0,-38.0,-71.0
103,-133.0,-1036.0,31.0,274.0,-34.0,-82.0
104,-171.0,-1023.0,43.0,298.0,-40.0,-100.0
105,30.0,-1210.0,3.0,368.0,-60.0,-126.0
106,-164.0,-1647.0,-135.0,2288.0,-360.0,-1826.0
107,-468.0,743.0,-459.0,1834.0,946.0,-2204.0
108,-729.0,60.0,-255.0,887.0,856.0,-577.0
109,-91.0,-284.0,-542.0,165.0,612.0,504.0
110,291.0,-986.0,-481.0,-125.0,698.0,560.0
111,-184.0,-719.0,-447.0,-47.0,1036.0,351.0
112,-526.0,-440.0,-403.0,-48.0,1051.0,383.0
113,-631.0,-240.0,-399.0,-225.0,827.0,577.0
114,-578.0,-349.0,-415.0,-507.0,512.0,780.0
115,-450.0,-493.0,-411.0,-707.0,217.0,915.0
116,-402.0,-524.0,-403.0,-803.0,0.0,961.0
117,-425.0,-466.0,-389.0,-876.0,-202.0,952.0
118,-410.0,-357.0,-383.0,-1188.0,-715.0,1115.0
119,561.0,-1226.0,-206.0,-2581.0,-1132.0,1563.0
120,673.0,-1601.0,376.0,-2063.0,-570.0,291.0
121,839.0,-1616.0,438.0,-1919.0,-394.0,453.0
122,924.0,-1309.0,531.0,-1779.0,-129.0,513.0
123,1016.0,-1026.0,568.0,-1817.0,151.0,359.0
124,1046.0,-1231.0,584.0,-1933.0,440.0,206.0
125,998.0,-1422.0,652.0,-1873.0,737.0,131.0
126,799.0,-1369.0,750.0,-1688.0,1038.0,1.0
127,439.0,-1134.0,837.0,-1539.0,1271.0,-167.0
128,191.0,-1166.0,892.0,-594.0,1013.0,766.0
129,-1263.0,-1517.0,-395.0,3026.0,566.0,1719.0
130,-416.0,-1192.0,-214.0,3279.0,-223.0,605.0
131,89.0,-932.0,23.0,3337.0,-580.0,237.0
132,-295.0,-571.0,411.0,3012.0,-518.0,358.0
133,-104.0,-711.0,364.0,2307.0,-477.0,139.0
134,-175.0,-545.0,443.0,1726.0,-263.0,-118.0
135,43.0,-721.0,345.0,1057.0,-192.0,-228.0
136,-72.0,-981.0,116.0,564.0,-142.0,-174.0
137,-49.0,-1070.0,-87.0,366.0,-116.0,-178.0
138,-121.0,-914.0,45.0,381.0,-85.0,-218.0
139,-95.0,-938.0,-10.0,325.0,-69.0,-325.0
140,14.0,-925.0,13.0,277.0,-85.0,-348.0
141,-24.0,-1017.0,-6.0,80.0,-23.0,-227.0
142,-25.0,-991.0,1.0,119.0,-64.0,142.0
143,-19.0,-992.0,-2.0,124.0,-66.0,144.0
144,-4.0,-983.0,6.0,132.0,-71.0,158.0
145,-18.0,-986.0,6.0,128.0,-70.0,183.0
146,-24.0,-992.0,3.0,126.0,-71.0,200.0
147,-24.0,-994.0,5.0,129.0,-74.0,216.0
148,-37.0,-996.0,9.0,130.0,-74.0,234.0
149,-42.0,-1010.0,0.0,131.0,-77.0,241.0
150,-41.0,-1029.0,-7.0,140.0,-80.0,247.0
151,-26.0,-1015.0,-3.0,161.0,-91.0,269.0
152,-48.0,-996.0,16.0,171.0,-101.0,307.0
153,-74.0,-978.0,28.0,148.0,-99.0,305.0
154,-93.0,-970.0,39.0,119.0,-56.0,100.0
155,-100.0,-1114.0,11.0,319.0,-103.0,-167.0
156,-144.0,-1100.0,19.0,362.0,-110.0,-189.0
157,-131.0,-1228.0,7.0,406.0,-145.0,-207.0
158,69.0,-1244.0,-14.0,499.0,-168.0,-233.0
159,486.0,-1489.0,-62.0,591.0,-65.0,-439.0
160,-143.0,-1287.0,-19.0,743.0,246.0,-735.0
161,-164.0,-1704.0,-94.0,864.0,213.0,-792.0
162,-779.0,-1929.0,-207.0,1075.0,177.0,-631.0
163,-47.0,-1959.0,-297.0,1636.0,-255.0,-160.0
164,-62.0,-1897.0,-206.0,2059.0,-157.0,-632.0
165,-318.0,-1959.0,-320.0,2969.0,-152.0,-1657.0
166,-1029.0,123.0,-635.0,971.0,596.0,-239.0
167,213.0,-6.0,-632.0,179.0,184.0,1009.0
168,496.0,-679.0,-583.0,-304.0,517.0,790.0
169,-127.0,-524.0,-528.0,-373.0,1017.0,385.0
170,-681.0,-427.0,-442.0,-423.0,1113.0,397.0
171,-1004.0,-229.0,-404.0,-546.0,879.0,656.0
172,-1076.0,-245.0,-401.0,-784.0,432.0,912.0
173,-933.0,-339.0,-409.0,-1017.0,-74.0,1115.0
174,-676.0,-401.0,-420.0,-1184.0,-510.0,1262.0
175,-411.0,-357.0,-424.0,-1321.0,-813.0,1338.0
176,-215.0,-325.0,-426.0,-1497.0,-984.0,1399.0
177,-35.0,-381.0,-416.0,-1704.0,-1060.0,1508.0
178,41.0,-410.0,-399.0,-1912.0,-1053.0,1676.0
179,78.0,-533.0,-382.0,-2131.0,-1022.0,1852.0
180,99.0,-733.0,-351.0,-2303.0,-1000.0,1935.0
181,0.0,-961.0,-276.0,-2437.0,-1071.0,1818.0
182,720.0,-1379.0,860.0,-1675.0,1907.0,-248.0
183,404.0,-1148.0,865.0,-1431.0,2076.0,-341.0
184,89.0,-1014.0,839.0,-1305.0,2086.0,-376.0
185,-70.0,-1101.0,803.0,-1212.0,1940.0,-215.0
186,-21.0,-1161.0,760.0,-1025.0,1740.0,134.0
187,181.0,-1143.0,709.0,-778.0,1587.0,465.0
188,333.0,-1045.0,660.0,-552.0,1541.0,610.0
189,390.0,-836.0,609.0,-412.0,1565.0,688.0
190,449.0,-765.0,538.0,-387.0,1611.0,869.0
191,559.0,-873.0,489.0,-391.0,1700.0,1116.0
192,580.0,-989.0,467.0,-328.0,1861.0,1273.0
193,-144.0,-602.0,821.0,1265.0,1872.0,2498.0
194,-67.0,-981.0,-10.0,394.0,-148.0,-35.0
195,-141.0,-899.0,33.0,395.0,-120.0,-51.0
196,-33.0,-914.0,20.0,360.0,-130.0,-129.0
197,-14.0,-914.0,37.0,321.0,-124.0,-104.0
198,-15.0,-923.0,40.0,262.0,-122.0,-37.0
199,-36.0,-954.0,15.0,204.0,-107.0,11.0
200,-48.0,-958.0,19.0,171.0,-91.0,31.0
201,-57.0,-959.0,20.0,141.0,-80.0,43.0
202,-54.0,-977.0,7.0,115.0,-75.0,58.0
203,-71.0,-990.0,0.0,104.0,-67.0,73.0
204,-88.0,-993.0,4.0,95.0,-52.0,26.0
205,-94.0,-996.0,13.0,97.0,-51.0,86.0
206,-102.0,-996.0,14.0,96.0,-50.0,66.0
207,-97.0,-1005.0,7.0,96.0,-52.0,42.0
208,-85.0,-996.0,12.0,106.0,-53.0,27.0
209,-78.0,-990.0,15.0,110.0,-53.0,21.0
210,-81.0,-1004.0,10.0,111.0,-54.0,27.0
211,-65.0,-1007.0,7.0,119.0,-58.0,42.0
212,-68.0,-998.0,11.0,130.0,-61.0,67.0
213,-69.0,-987.0,18.0,136.0,-67.0,94.0
214,-88.0,-999.0,17.0,136.0,-67.0,108.0
215,-85.0,-991.0,21.0,145.0,-67.0,107.0
216,-80.0,-986.0,23.0,151.0,-71.0,114.0
217,-119.0,-995.0,38.0,134.0,-48.0,-25.0
218,3.0,-1104.0,14.0,266.0,-137.0,-475.0
219,-95.0,-1050.0,55.0,306.0,-118.0,-464.0
220,-155.0,-1077.0,53.0,328.0,-129.0,-480.0
221,-124.0,-1047.0,58.0,351.0,-151.0,-536.0
222,-145.0,-1053.0,71.0,359.0,-160.0,-606.0
223,-117.0,-1150.0,50.0,367.0,-174.0,-694.0
224,-97.0,-1008.0,77.0,399.0,-197.0,-781.0
225,-189.0,-1227.0,50.0,407.0,-210.0,-840.0
226,317.0,-1330.0,-23.0,479.0,-253.0,-974.0
227,247.0,-1250.0,-37.0,580.0,-53.0,-1196.0
228,100.0,-1779.0,-60.0,672.0,79.0,-1260.0
229,-105.0,-1959.0,-195.0,1470.0,-120.0,-749.0
230,-294.0,-401.0,-434.0,4568.0,240.0,-4453.0
231,-493.0,-271.0,-274.0,-1014.0,-702.0,901.0
232,-374.0,-306.0,-243.0,-1168.0,-956.0,941.0
233,-286.0,-353.0,-214.0,-1318.0,-1134.0,983.0
234,-219.0,-370.0,-190.0,-1471.0,-1248.0,1077.0
235,-117.0,-387.0,-182.0,-1651.0,-1322.0,1285.0
236,-27.0,-518.0,-177.0,-1855.0,-1336.0,1565.0
237,27.0,-721.0,-158.0,-2020.0,-1312.0,1798.0
238,30.0,-833.0,-118.0,-2108.0,-1293.0,1945.0
239,-15.0,-937.0,-80.0,-2162.0,-1321.0,2016.0
240,-64.0,-1010.0,-51.0,-2195.0,-1434.0,2041.0
241,-50.0,-1064.0,-44.0,-2234.0,-1632.0,2024.0
242,220.0,-1316.0,-50.0,-2258.0,-2075.0,1927.0
243,1098.0,-1418.0,3.0,-1943.0,-1794.0,975.0
244,1199.0,-1432.0,63.0,-1909.0,-1610.0,849.0
245,1292.0,-1431.0,132.0,-1858.0,-1348.0,722.0
246,1331.0,-1454.0,215.0,-1791.0,-999.0,623.0
247,1266.0,-1290.0,307.0,-1704.0,-586.0,532.0
248,1130.0,-958.0,374.0,-1719.0,-198.0,436.0
249,951.0,-1041.0,384.0,-1865.0,98.0,421.0
250,840.0,-1228.0,404.0,-1910.0,312.0,460.0
251,679.0,-1345.0,440.0,-1810.0,486.0,405.0
252,499.0,-1320.0,483.0,-1623.0,590.0,212.0
253,309.0,-1153.0,527.0,-1444.0,609.0,10.0
254,204.0,-1037.0,519.0,-1346.0,535.0,-56.0
255,231.0,-975.0,504.0,-1292.0,415.0,48.0
256,280.0,-978.0,478.0,-1258.0,330.0,208.0
257,391.0,-1067.0,431.0,-1203.0,298.0,332.0
258,571.0,-1017.0,362.0,-940.0,450.0,472.0
259,-277.0,-1048.0,-401.0,2710.0,752.0,1562.0
260,-22.0,-921.0,8.0,257.0,-84.0,-273.0
261,1.0,-933.0,-5.0,198.0,-71.0,-237.0
262,-32.0,-952.0,-17.0,152.0,-47.0,-193.0
263,-43.0,-953.0,-14.0,125.0,-39.0,-171.0
264,-40.0,-956.0,-18.0,104.0,-42.0,-153.0
265,-46.0,-958.0,-22.0,88.0,-42.0,-138.0
266,-71.0,-957.0,-16.0,74.0,-38.0,-140.0
267,-55.0,-969.0,-22.0,59.0,-37.0,-166.0
268,-59.0,-986.0,-28.0,50.0,-32.0,-188.0
269,-32.0,-997.0,-36.0,46.0,-34.0,-196.0
270,-48.0,-1006.0,-39.0,47.0,-27.0,-185.0
271,-41.0,-1002.0,-34.0,53.0,-21.0,-199.0
272,-46.0,-992.0,-22.0,62.0,-33.0,70.0
273,-30.0,-996.0,-28.0,29.0,-23.0,-8.0
274,-10.0,-988.0,-27.0,35.0,-25.0,-1.0
275,-19.0,-979.0,-22.0,40.0,-26.0,26.0
276,-44.0,-999.0,-29.0,45.0,-31.0,45.0
277,-31.0,-1023.0,-39.0,106.0,-62.0,124.0
278,-30.0,-1010.0,-32.0,127.0,-69.0,147.0
279,-51.0,-994.0,-19.0,141.0,-74.0,166.0
280,-62.0,-983.0,-7.0,144.0,-77.0,157.0
281,-54.0,-984.0,-11.0,134.0,-74.0,138.0
282,-52.0,-991.0,-13.0,129.0,-73.0,128.0
283,-54.0,-986.0,-9.0,127.0,-72.0,123.0
284,-52.0,-986.0,-7.0,119.0,-72.0,118.0
285,-73.0,-990.0,-7.0,112.0,-68.0,110.0
286,-74.0,-985.0,-1.0,107.0,-68.0,83.0
287,-63.0,-985.0,-6.0,99.0,-67.0,56.0
288,-102.0,-1060.0,1.0,226.0,-132.0,-195.0
289,867.0,-1959.0,-441.0,1045.0,-170.0,-816.0
290,-650.0,-1959.0,-313.0,1672.0,179.0,-601.0
291,148.0,-1843.0,-313.0,2257.0,-256.0,-140.0
292,-180.0,-1922.0,-225.0,2531.0,-155.0,-278.0
293,-132.0,-1959.0,-337.0,2779.0,-207.0,-417.0
294,-211.0,-1959.0,-350.0,3083.0,-196.0,-648.0
295,-499.0,-1863.0,-334.0,3331.0,-156.0,-982.0
296,-608.0,-1872.0,-244.0,3533.0,-242.0,-1207.0
297,-483.0,-1776.0,-159.0,3687.0,-377.0,-1382.0
298,-194.0,-1691.0,-214.0,3766.0,-430.0,-1669.0
299,-522.0,-1811.0,-310.0,3802.0,-361.0,-1823.0
300,-92.0,-685.0,-307.0,3959.0,-470.0,-1933.0
301,548.0,-1213.0,-321.0,-2644.0,-2039.0,1413.0
302,595.0,-1296.0,-298.0,-2701.0,-2048.0,1292.0
303,650.0,-1382.0,-271.0,-2735.0,-2050.0,1131.0
304,708.0,-1437.0,-240.0,-2737.0,-2040.0,970.0
305,774.0,-1468.0,-213.0,-2723.0,-2018.0,836.0
306,835.0,-1509.0,-196.0,-2707.0,-1979.0,718.0
307,890.0,-1495.0,-175.0,-2691.0,-1920.0,587.0
308,927.0,-1510.0,-154.0,-2700.0,-1849.0,429.0
309,942.0,-1573.0,-125.0,-2701.0,-1774.0,274.0
310,903.0,-1591.0,-72.0,-2667.0,-1696.0,126.0
311,794.0,-1590.0,-55.0,-2619.0,-1633.0,-21.0
312,652.0,-1494.0,-24.0,-2570.0,-1619.0,-123.0
313,492.0,-1482.0,-7.0,-2566.0,-1669.0,-224.0
314,406.0,-1515.0,6.0,-2570.0,-1790.0,-330.0
315,300.0,-1540.0,88.0,-2328.0,-2258.0,-542.0
316,-180.0,-1270.0,990.0,-448.0,956.0,263.0
317,-521.0,-1259.0,952.0,-186.0,762.0,374.0
318,-613.0,-1261.0,895.0,71.0,349.0,510.0
319,-528.0,-1181.0,814.0,305.0,-143.0,518.0
320,-394.0,-1088.0,708.0,482.0,-618.0,403.0
321,-229.0,-1080.0,599.0,605.0,-1035.0,239.0
322,-114.0,-1078.0,501.0,726.0,-1351.0,45.0
323,218.0,-1278.0,409.0,806.0,-1606.0,-158.0
324,-116.0,61.0,-86.0,1708.0,-1210.0,-1165.0
325,779.0,-757.0,-798.0,2409.0,-1021.0,-517.0
326,641.0,-1019.0,-635.0,2720.0,-492.0,415.0
327,-261.0,-898.0,167.0,2686.0,-364.0,608.0
328,-40.0,-988.0,-18.0,242.0,-69.0,-248.0
329,-51.0,-1015.0,-37.0,192.0,-44.0,-237.0
330,-53.0,-1011.0,-54.0,169.0,-39.0,-218.0
331,-43.0,-978.0,-32.0,168.0,-50.0,-185.0
332,-31.0,-961.0,-21.0,151.0,-53.0,-153.0
333,-36.0,-973.0,-25.0,123.0,-45.0,-122.0
334,-41.0,-991.0,-39.0,102.0,-40.0,-90.0
335,-55.0,-1000.0,-43.0,94.0,-40.0,-61.0
336,-62.0,-996.0,-38.0,91.0,-40.0,-47.0
337,-71.0,-987.0,-27.0,83.0,-37.0,-52.0
338,-60.0,-986.0,-30.0,67.0,-33.0,-63.0
339,-62.0,-995.0,-41.0,52.0,-28.0,-69.0
340,-67.0,-971.0,-28.0,54.0,-24.0,-65.0
341,-53.0,-977.0,-32.0,46.0,-23.0,-89.0
342,-48.0,-981.0,-33.0,43.0,-20.0,-97.0
343,-42.0,-979.0,-29.0,41.0,-22.0,-97.0
344,-36.0,-977.0,-29.0,34.0,-23.0,-91.0
345,-49.0,-978.0,-29.0,24.0,-19.0,-85.0
346,-44.0,-983.0,-36.0,16.0,-17.0,-94.0
347,-33.0,-983.0,-36.0,15.0,-16.0,-94.0
348,-47.0,-991.0,-41.0,15.0,-15.0,-88.0
349,-39.0,-989.0,-39.0,21.0,-18.0,-93.0
350,-36.0,-979.0,-32.0,24.0,-18.0,-92.0
351,-35.0,-992.0,-37.0,19.0,-18.0,-94.0
352,-30.0,-1018.0,-51.0,60.0,-29.0,-118.0
353,-20.0,-1006.0,-45.0,77.0,-35.0,-109.0
354,-24.0,-991.0,-32.0,86.0,-40.0,-91.0
355,-31.0,-1012.0,-42.0,83.0,-41.0,-85.0
356,-21.0,-1025.0,-56.0,94.0,-47.0,-84.0
357,2.0,-991.0,-33.0,115.0,-56.0,-62.0
358,-11.0,-983.0,-26.0,114.0,-56.0,-29.0
359,-12.0,-986.0,-29.0,106.0,-55.0,-10.0
360,-6.0,-983.0,-27.0,100.0,-55.0,8.0
361,-18.0,-989.0,-30.0,97.0,-54.0,30.0
362,-6.0,-1023.0,-45.0,119.0,-65.0,61.0
363,-77.0,-1013.0,-18.0,172.0,-89.0,91.0
364,-73.0,-1012.0,-17.0,183.0,-90.0,71.0
365,-68.0,-1001.0,-7.0,193.0,-94.0,63.0
366,-76.0,-996.0,-3.0,192.0,-96.0,57.0
367,-88.0,-998.0,0.0,191.0,-98.0,40.0
368,-93.0,-998.0,8.0,187.0,-98.0,8.0
369,-106.0,-1003.0,5.0,184.0,-100.0,-26.0
370,-67.0,-996.0,3.0,185.0,-108.0,-60.0
371,-79.0,-996.0,12.0,187.0,-108.0,-75.0
372,-55.0,-998.0,-4.0,181.0,-115.0,-90.0
373,-71.0,-1004.0,5.0,177.0,-113.0,-102.0
374,-65.0,-1022.0,2.0,177.0,-115.0,-128.0
375,41.0,-1062.0,12.0,336.0,-182.0,-551.0
376,128.0,-1882.0,-186.0,2395.0,-153.0,-50.0
377,19.0,-1950.0,-213.0,2666.0,-114.0,-78.0
378,-249.0,-1886.0,-216.0,2961.0,-95.0,-165.0
379,-540.0,-1959.0,-163.0,3235.0,-175.0,-221.0
380,-523.0,-1959.0,-187.0,3524.0,-332.0,-336.0
381,-156.0,-1959.0,-186.0,3801.0,-465.0,-497.0
382,-134.0,-1939.0,-232.0,4040.0,-410.0,-798.0
383,9.0,-1959.0,-209.0,4159.0,-411.0,-824.0
384,80.0,-1901.0,-211.0,4288.0,-390.0,-632.0
385,395.0,-1959.0,-366.0,4351.0,-403.0,-367.0
386,382.0,-1937.0,-517.0,4437.0,-287.0,-256.0
387,-470.0,1788.0,-1171.0,4347.0,-155.0,31.0
388,-63.0,-486.0,-423.0,-2060.0,-1253.0,865.0
389,-1.0,-528.0,-371.0,-2163.0,-1394.0,681.0
390,69.0,-543.0,-328.0,-2264.0,-1493.0,565.0
391,161.0,-566.0,-297.0,-2384.0,-1553.0,528.0
392,293.0,-629.0,-253.0,-2528.0,-1563.0,515.0
393,440.0,-720.0,-213.0,-2670.0,-1501.0,519.0
394,548.0,-830.0,-180.0,-2791.0,-1347.0,529.0
395,608.0,-901.0,-140.0,-2894.0,-1124.0,525.0
396,608.0,-980.0,-100.0,-3006.0,-866.0,496.0
397,582.0,-1099.0,-50.0,-3124.0,-610.0,453.0
398,487.0,-1245.0,-1.0,-3218.0,-371.0,405.0
399,340.0,-1368.0,30.0,-3268.0,-184.0,366.0
400,238.0,-1469.0,56.0,-3277.0,-78.0,318.0
401,149.0,-1485.0,55.0,-3203.0,-63.0,-31.0
402,576.0,-1914.0,733.0,-2510.0,-1205.0,-291.0
403,737.0,-1866.0,902.0,-2154.0,-1093.0,-470.0
404,822.0,-1628.0,1097.0,-1789.0,-903.0,-664.0
405,836.0,-1457.0,1265.0,-1509.0,-655.0,-764.0
406,711.0,-1392.0,1407.0,-1274.0,-346.0,-723.0
407,563.0,-1426.0,1515.0,-1007.0,-27.0,-460.0
408,462.0,-1492.0,1595.0,-661.0,291.0,-53.0
409,393.0,-1240.0,1642.0,-297.0,581.0,318.0
410,368.0,-1190.0,1545.0,-70.0,795.0,529.0
411,241.0,-1409.0,1390.0,165.0,941.0,664.0
412,-17.0,-1415.0,1250.0,498.0,978.0,752.0
413,-417.0,885.0,-60.0,2105.0,2087.0,-27.0
414,-363.0,-992.0,-16.0,1361.0,-397.0,559.0
415,-324.0,-1011.0,-20.0,1205.0,-296.0,119.0
416,-228.0,-983.0,-16.0,1104.0,-225.0,-210.0
417,-112.0,-891.0,51.0,989.0,-192.0,-369.0
418,-18.0,-903.0,60.0,812.0,-210.0,-354.0
419,-16.0,-932.0,-1.0,671.0,-213.0,-270.0
420,-1.0,-899.0,8.0,583.0,-194.0,-201.0
421,-45.0,-907.0,16.0,501.0,-150.0,-157.0
422,-34.0,-916.0,6.0,428.0,-137.0,-137.0
423,-9.0,-918.0,8.0,367.0,-139.0,-87.0
424,-2.0,-925.0,7.0,307.0,-136.0,-13.0
425,-24.0,-936.0,3.0,249.0,-127.0,63.0
426,-51.0,-956.0,-10.0,203.0,-119.0,114.0
427,-73.0,-958.0,-10.0,179.0,-116.0,136.0
428,-76.0,-998.0,-13.0,27.0,-16.0,5.0
429,-82.0,-1000.0,-16.0,27.0,-14.0,-4.0
430,-86.0,-992.0,-15.0,32.0,-13.0,-20.0
431,-89.0,-993.0,-18.0,36.0,-9.0,-44.0
432,-77.0,-992.0,-19.0,43.0,-9.0,-69.0
433,-75.0,-978.0,-8.0,49.0,-9.0,-82.0
434,-66.0,-971.0,-5.0,45.0,-7.0,-93.0
435,-61.0,-982.0,-13.0,36.0,-4.0,-99.0
436,-51.0,-979.0,-11.0,35.0,-6.0,-95.0
437,-48.0,-973.0,-10.0,32.0,-6.0,-80.0
438,-51.0,-978.0,-13.0,27.0,-7.0,-61.0
439,-63.0,-989.0,-14.0,32.0,-20.0,-25.0
440,-58.0,-998.0,-19.0,35.0,-23.0,-19.0
441,-61.0,-1003.0,-21.0,40.0,-25.0,-9.0
442,-60.0,-999.0,-17.0,46.0,-28.0,2.0
443,-52.0,-994.0,-14.0,50.0,-31.0,13.0
444,-52.0,-995.0,-16.0,49.0,-32.0,30.0
445,-55.0,-987.0,-11.0,52.0,-33.0,46.0
446,-57.0,-982.0,-5.0,48.0,-34.0,58.0
447,-63.0,-992.0,-11.0,40.0,-32.0,65.0
448,-80.0,-992.0,-8.0,39.0,-31.0,54.0
449,-78.0,-993.0,-11.0,67.0,-41.0,85.0
450,-77.0,-1001.0,-15.0,71.0,-43.0,80.0
451,-64.0,-1003.0,-17.0,81.0,-47.0,83.0
452,-72.0,-1015.0,-20.0,92.0,-51.0,103.0
453,-73.0,-1019.0,-24.0,111.0,-60.0,122.0
454,-59.0,-1010.0,-15.0,135.0,-72.0,143.0
455,-74.0,-1007.0,-12.0,149.0,-76.0,170.0
456,-70.0,-994.0,-5.0,157.0,-84.0,191.0
457,-82.0,-980.0,5.0,157.0,-88.0,212.0
458,-115.0,-981.0,10.0,148.0,-86.0,210.0
459,-99.0,-970.0,10.0,138.0,-86.0,180.0
460,-160.0,-1097.0,2.0,226.0,-175.0,231.0
461,-532.0,-1918.0,-175.0,2453.0,-271.0,-672.0
462,-153.0,-1949.0,-268.0,2723.0,-399.0,-824.0
463,-487.0,-1826.0,-253.0,2990.0,-266.0,-1187.0
464,-408.0,-1815.0,-221.0,3219.0,-343.0,-1302.0
465,-381.0,-1791.0,-140.0,3401.0,-386.0,-1378.0
466,-196.0,-1747.0,-194.0,3544.0,-401.0,-1542.0
467,-309.0,-1746.0,-189.0,3680.0,-334.0,-1731.0
468,-425.0,-1638.0,-147.0,3799.0,-356.0,-1741.0
469,151.0,-1594.0,-245.0,3808.0,-425.0,-1931.0