sequence,AccelerometerX,AccelerometerY,AccelerometerZ,GyroscopeX,GyroscopeY,GyroscopeZ
0,-105.0,-977.0,121.0,37.0,-39.0,-1.0
1,-104.0,-979.0,122.0,37.0,-40.0,-3.0
2,-101.0,-980.0,123.0,37.0,-40.0,-4.0
3,-102.0,-979.0,122.0,39.0,-39.0,-4.0
4,-103.0,-976.0,123.0,39.0,-39.0,-2.0
5,-103.0,-976.0,124.0,38.0,-38.0,-2.0
6,-104.0,-976.0,123.0,36.0,-38.0,-3.0
7,-102.0,-975.0,123.0,35.0,-39.0,-4.0
8,-103.0,-978.0,122.0,33.0,-39.0,-3.0
9,-104.0,-980.0,122.0,33.0,-38.0,-3.0
10,-104.0,-974.0,123.0,42.0,-38.0,4.0
11,-106.0,-973.0,124.0,41.0,-38.0,4.0
12,-106.0,-972.0,123.0,40.0,-38.0,1.0
13,-107.0,-972.0,125.0,38.0,-37.0,0.0
14,-106.0,-975.0,124.0,35.0,-37.0,-2.0
15,-106.0,-979.0,122.0,34.0,-37.0,-4.0
16,-103.0,-979.0,123.0,34.0,-38.0,-5.0
17,-106.0,-977.0,123.0,34.0,-38.0,-5.0
18,-105.0,-978.0,122.0,35.0,-38.0,-5.0
19,-104.0,-976.0,123.0,34.0,-37.0,-5.0
20,-106.0,-972.0,125.0,34.0,-37.0,-5.0
21,-103.0,-971.0,125.0,30.0,-37.0,-6.0
22,-105.0,-978.0,121.0,19.0,-35.0,-3.0
23,-103.0,-978.0,121.0,19.0,-35.0,-4.0
24,-108.0,-979.0,122.0,19.0,-35.0,-4.0
25,-105.0,-979.0,120.0,19.0,-36.0,-6.0
26,-104.0,-976.0,121.0,19.0,-36.0,-7.0
27,-108.0,-975.0,121.0,19.0,-36.0,-9.0
28,-105.0,-971.0,121.0,18.0,-35.0,-12.0
29,-107.0,-968.0,122.0,16.0,-35.0,-14.0
30,-105.0,-965.0,122.0,13.0,-34.0,-15.0
31,-103.0,-965.0,123.0,11.0,-34.0,-17.0
32,-107.0,-971.0,123.0,6.0,-32.0,-18.0
33,-103.0,-983.0,120.0,3.0,-33.0,-18.0
34,796.0,-1355.0,-185.0,447.0,180.0,12.0
35,977.0,-1287.0,-298.0,458.0,631.0,-508.0
36,485.0,-1584.0,-293.0,478.0,1197.0,-728.0
37,375.0,-1271.0,-363.0,745.0,1408.0,-406.0
38,283.0,-942.0,-483.0,828.0,1579.0,-158.0
39,69.0,-807.0,-478.0,714.0,1767.0,70.0
40,-95.0,-729.0,-549.0,503.0,1803.0,246.0
41,-149.0,-786.0,-608.0,230.0,1714.0,197.0
42,59.0,-857.0,-628.0,-227.0,965.0,-335.0
43,11.0,-1063.0,-28.0,-365.0,411.0,-607.0
44,-286.0,-1181.0,473.0,-522.0,213.0,-358.0
45,-274.0,-939.0,548.0,-364.0,117.0,-307.0
46,-284.0,-590.0,588.0,-376.0,23.0,-255.0
47,-293.0,-657.0,564.0,-599.0,-70.0,-159.0
48,-344.0,-1006.0,551.0,-745.0,-162.0,-35.0
49,-403.0,-1208.0,558.0,-636.0,-270.0,58.0
50,-404.0,-1221.0,581.0,-361.0,-414.0,137.0
51,-340.0,-1121.0,602.0,-69.0,-563.0,222.0
52,-252.0,-978.0,592.0,141.0,-681.0,304.0
53,-165.0,-919.0,546.0,241.0,-746.0,383.0
54,-99.0,-974.0,505.0,294.0,-758.0,440.0
55,20.0,-927.0,447.0,474.0,-674.0,470.0
56,-57.0,-962.0,104.0,87.0,-15.0,67.0
57,-60.0,-965.0,104.0,82.0,-12.0,73.0
58,-59.0,-972.0,102.0,78.0,-9.0,81.0
59,-84.0,-990.0,99.0,77.0,-6.0,86.0
60,-83.0,-987.0,102.0,84.0,-9.0,76.0
61,-86.0,-983.0,107.0,84.0,-10.0,61.0
62,-82.0,-985.0,108.0,77.0,-14.0,46.0
63,-76.0,-989.0,105.0,69.0,-17.0,36.0
64,-80.0,-996.0,103.0,64.0,-18.0,28.0
65,-65.0,-995.0,103.0,65.0,-20.0,22.0
66,-59.0,-1000.0,100.0,65.0,-19.0,29.0
67,-67.0,-1001.0,104.0,71.0,-17.0,60.0
68,-71.0,-985.0,103.0,-13.0,-39.0,-17.0
69,-75.0,-998.0,97.0,-12.0,-39.0,-11.0
70,-78.0,-1003.0,93.0,-4.0,-39.0,-9.0
71,-72.0,-1000.0,93.0,10.0,-41.0,-9.0
72,-79.0,-984.0,100.0,26.0,-41.0,-5.0
73,-84.0,-994.0,97.0,32.0,-43.0,-4.0
74,-75.0,-1021.0,84.0,43.0,-45.0,-8.0
75,-72.0,-1014.0,85.0,73.0,-45.0,-5.0
76,-83.0,-1012.0,94.0,99.0,-45.0,1.0
77,-80.0,-1063.0,85.0,206.0,-56.0,-19.0
78,-213.0,-1959.0,-394.0,3641.0,189.0,672.0
79,-112.0,-1959.0,-397.0,4100.0,197.0,374.0
80,-60.0,-1959.0,-522.0,4424.0,261.0,50.0
81,109.0,-1604.0,-307.0,4754.0,248.0,218.0
82,310.0,-893.0,-511.0,4658.0,257.0,797.0
83,-678.0,-1149.0,-1122.0,4079.0,304.0,1502.0
84,-527.0,824.0,-1182.0,3894.0,-548.0,1802.0
85,385.0,664.0,-978.0,2508.0,-1233.0,675.0
86,134.0,-455.0,-1133.0,1168.0,-1205.0,-382.0
87,340.0,-649.0,-1055.0,943.0,-1378.0,-412.0
88,270.0,-1098.0,3.0,-2720.0,71.0,-484.0
89,236.0,-1191.0,62.0,-2728.0,166.0,-445.0
90,207.0,-1264.0,127.0,-2723.0,239.0,-414.0
91,154.0,-1190.0,195.0,-2729.0,291.0,-445.0
92,91.0,-1247.0,228.0,-2843.0,298.0,-557.0
93,58.0,-1504.0,270.0,-2949.0,257.0,-655.0
94,-10.0,-1654.0,323.0,-2900.0,191.0,-687.0
95,-48.0,-1691.0,378.0,-2762.0,92.0,-717.0
96,-102.0,-1731.0,435.0,-2615.0,-11.0,-781.0
97,-187.0,-1836.0,503.0,-2445.0,-131.0,-816.0
98,-260.0,-1875.0,590.0,-2204.0,-289.0,-765.0
99,-287.0,-1525.0,836.0,-1732.0,-675.0,-806.0
100,83.0,-986.0,1517.0,-119.0,-531.0,16.0
101,-20.0,-992.0,1431.0,92.0,-314.0,-110.0
102,-174.0,-1007.0,1332.0,306.0,-155.0,-135.0
103,-275.0,-1555.0,1160.0,227.0,-32.0,228.0
104,329.0,237.0,980.0,2261.0,-427.0,1853.0
105,15.0,-439.0,85.0,1933.0,-15.0,2251.0
106,-708.0,-1154.0,-255.0,1667.0,27.0,2441.0
107,-509.0,-856.0,-466.0,1960.0,-204.0,1603.0
108,-495.0,-1632.0,-302.0,2422.0,-473.0,953.0
109,-263.0,-844.0,285.0,2804.0,-499.0,746.0
110,24.0,394.0,1055.0,2326.0,-346.0,466.0
111,-350.0,-1249.0,48.0,417.0,75.0,296.0
112,-96.0,-976.0,106.0,137.0,-13.0,21.0
113,-97.0,-974.0,110.0,128.0,-17.0,12.0
114,-110.0,-976.0,109.0,115.0,-19.0,-3.0
115,-118.0,-981.0,110.0,101.0,-25.0,-30.0
116,-109.0,-991.0,106.0,90.0,-34.0,-64.0
117,-101.0,-1001.0,107.0,83.0,-39.0,-93.0
118,-81.0,-1005.0,105.0,77.0,-46.0,-110.0
119,-54.0,-999.0,103.0,77.0,-49.0,-104.0
120,-49.0,-987.0,110.0,77.0,-45.0,-74.0
121,-59.0,-988.0,111.0,73.0,-40.0,-39.0
122,-64.0,-987.0,108.0,70.0,-38.0,-11.0
123,-86.0,-978.0,113.0,66.0,-35.0,21.0
124,-86.0,-972.0,115.0,54.0,-40.0,26.0
125,-83.0,-968.0,114.0,52.0,-41.0,25.0
126,-84.0,-972.0,114.0,50.0,-39.0,24.0
127,-95.0,-981.0,113.0,47.0,-38.0,21.0
128,-96.0,-975.0,117.0,47.0,-40.0,10.0
129,-93.0,-979.0,114.0,42.0,-42.0,-3.0
130,-94.0,-979.0,113.0,41.0,-42.0,-14.0
131,-85.0,-974.0,115.0,41.0,-43.0,-21.0
132,-83.0,-966.0,114.0,41.0,-42.0,-23.0
133,-76.0,-975.0,114.0,44.0,-40.0,-21.0
134,-72.0,-994.0,107.0,49.0,-39.0,-10.0
135,-70.0,-1001.0,106.0,79.0,-40.0,24.0
136,1.0,-1294.0,104.0,469.0,-30.0,205.0
137,259.0,-1959.0,-332.0,4040.0,365.0,-76.0
138,263.0,-1815.0,-179.0,4403.0,465.0,55.0
139,442.0,-1210.0,-426.0,4421.0,512.0,328.0
140,-137.0,-1426.0,-1262.0,4035.0,696.0,885.0
141,151.0,1260.0,-1012.0,4050.0,324.0,1417.0
142,951.0,270.0,-1241.0,2283.0,73.0,938.0
143,497.0,-1173.0,-1131.0,1130.0,425.0,177.0
144,524.0,-462.0,-1119.0,1327.0,421.0,120.0
145,691.0,105.0,-1189.0,1095.0,483.0,27.0
146,519.0,-42.0,-1213.0,495.0,674.0,-192.0
147,284.0,-188.0,-1153.0,66.0,779.0,-356.0
148,-97.0,-164.0,-1007.0,-472.0,649.0,-582.0
149,112.0,-1382.0,8.0,-3001.0,380.0,-1067.0
150,133.0,-1396.0,80.0,-2972.0,452.0,-1077.0
151,118.0,-1409.0,118.0,-2990.0,525.0,-1116.0
152,81.0,-1574.0,160.0,-3045.0,577.0,-1179.0
153,26.0,-1703.0,214.0,-3023.0,602.0,-1250.0
154,-21.0,-1649.0,277.0,-2960.0,591.0,-1375.0
155,-53.0,-1687.0,311.0,-2972.0,549.0,-1561.0
156,-141.0,-1767.0,362.0,-2970.0,498.0,-1696.0
157,-238.0,-1838.0,410.0,-2915.0,413.0,-1725.0
158,-330.0,-1850.0,465.0,-2814.0,300.0,-1654.0
159,-417.0,-1758.0,524.0,-2703.0,157.0,-1529.0
160,-474.0,-1629.0,590.0,-2637.0,-21.0,-1430.0
161,-500.0,-1488.0,639.0,-2636.0,-219.0,-1369.0
162,-506.0,-1480.0,701.0,-2687.0,-422.0,-1342.0
163,-504.0,-1511.0,808.0,-2692.0,-620.0,-1307.0
164,-317.0,-1391.0,1078.0,-2533.0,-966.0,-1015.0
165,-464.0,-1532.0,-681.0,2997.0,-1085.0,2679.0
166,-116.0,-984.0,136.0,377.0,66.0,288.0
167,18.0,-953.0,137.0,345.0,26.0,234.0
168,-142.0,-866.0,203.0,316.0,63.0,247.0
169,-73.0,-963.0,145.0,215.0,33.0,176.0
170,-67.0,-981.0,136.0,188.0,28.0,156.0
171,-113.0,-987.0,138.0,176.0,24.0,145.0
172,-104.0,-993.0,141.0,159.0,7.0,100.0
173,-65.0,-1025.0,125.0,141.0,-8.0,66.0
174,-77.0,-1030.0,127.0,148.0,-11.0,64.0
175,-97.0,-1015.0,135.0,154.0,-18.0,54.0
176,-100.0,-1006.0,137.0,150.0,-32.0,29.0
177,-79.0,-984.0,142.0,136.0,-59.0,-16.0
178,-71.0,-961.0,147.0,39.0,-56.0,-33.0
179,-60.0,-960.0,146.0,32.0,-53.0,-37.0
180,-55.0,-960.0,144.0,29.0,-49.0,-29.0
181,-63.0,-956.0,147.0,27.0,-44.0,-19.0
182,-65.0,-959.0,146.0,21.0,-41.0,-13.0
183,-62.0,-965.0,143.0,18.0,-40.0,-8.0
184,-67.0,-973.0,140.0,19.0,-37.0,-1.0
185,-70.0,-975.0,142.0,22.0,-35.0,4.0
186,-71.0,-975.0,143.0,25.0,-34.0,4.0
187,-72.0,-971.0,142.0,24.0,-34.0,4.0
188,-83.0,-977.0,145.0,22.0,-33.0,0.0
189,-77.0,-1001.0,140.0,17.0,-39.0,-22.0
190,-88.0,-1128.0,117.0,256.0,-46.0,28.0
191,171.0,-1959.0,-117.0,2711.0,-165.0,390.0
192,55.0,-1959.0,-141.0,3049.0,23.0,172.0
193,128.0,-1959.0,-204.0,3475.0,124.0,-103.0
194,7.0,-1959.0,-341.0,3889.0,253.0,-382.0
195,81.0,-1953.0,-426.0,4325.0,311.0,-610.0
196,-253.0,-1873.0,-363.0,4637.0,480.0,-675.0
197,-117.0,-1959.0,-340.0,4759.0,393.0,-95.0
198,426.0,-1898.0,-481.0,4976.0,222.0,561.0
199,-39.0,-1958.0,-727.0,4929.0,401.0,875.0
200,451.0,423.0,-1654.0,5211.0,177.0,1214.0
201,-141.0,1935.0,-348.0,3945.0,41.0,1150.0
202,233.0,-1155.0,-920.0,604.0,-144.0,209.0
203,85.0,-439.0,-510.0,-2877.0,-230.0,-187.0
204,62.0,-1959.0,343.0,-3799.0,84.0,-844.0
205,-146.0,-1959.0,502.0,-3785.0,-20.0,-956.0
206,-330.0,-1959.0,658.0,-3781.0,-272.0,-1019.0
207,-467.0,-1959.0,813.0,-3729.0,-643.0,-1017.0
208,-496.0,-1959.0,959.0,-3533.0,-1089.0,-1009.0
209,-414.0,-1959.0,1084.0,-3218.0,-1511.0,-1046.0
210,-313.0,-1959.0,1234.0,-2849.0,-1802.0,-1116.0
211,-166.0,-1844.0,1434.0,-2491.0,-1950.0,-1095.0
212,105.0,-1649.0,1655.0,-2176.0,-1959.0,-911.0
213,400.0,-1329.0,1902.0,-1887.0,-1775.0,-689.0
214,577.0,-1132.0,1959.0,-1703.0,-1401.0,-508.0
215,361.0,-1407.0,1959.0,-1199.0,-239.0,-334.0
216,59.0,-669.0,414.0,974.0,-73.0,195.0
217,-164.0,-1125.0,66.0,594.0,-34.0,227.0
218,-35.0,-955.0,107.0,590.0,-98.0,129.0
219,-78.0,-832.0,183.0,536.0,-57.0,80.0
220,1.0,-836.0,176.0,410.0,-47.0,24.0
221,-71.0,-932.0,151.0,225.0,-8.0,76.0
222,-75.0,-956.0,143.0,160.0,-17.0,35.0
223,-68.0,-981.0,126.0,106.0,-29.0,-8.0
224,-79.0,-1000.0,115.0,75.0,-39.0,-47.0
225,-43.0,-988.0,111.0,64.0,-49.0,-88.0
226,-37.0,-982.0,111.0,57.0,-50.0,-100.0
227,-32.0,-991.0,107.0,50.0,-50.0,-98.0
228,-33.0,-988.0,109.0,50.0,-48.0,-93.0
229,-19.0,-1001.0,104.0,54.0,-48.0,-89.0
230,-38.0,-988.0,108.0,50.0,-45.0,-32.0
231,-27.0,-1012.0,104.0,112.0,-47.0,14.0
232,-33.0,-1016.0,104.0,128.0,-48.0,23.0
233,-28.0,-1011.0,109.0,144.0,-52.0,31.0
234,-26.0,-996.0,116.0,156.0,-54.0,41.0
235,-31.0,-1000.0,118.0,162.0,-54.0,50.0
236,-45.0,-993.0,119.0,168.0,-52.0,51.0
237,-57.0,-987.0,126.0,168.0,-54.0,37.0
238,-38.0,-994.0,123.0,164.0,-58.0,14.0
239,-32.0,-1004.0,120.0,169.0,-55.0,4.0
240,-40.0,-990.0,128.0,176.0,-54.0,4.0
241,-43.0,-988.0,129.0,173.0,-58.0,6.0
242,-45.0,-1051.0,116.0,180.0,-61.0,10.0
243,397.0,-856.0,-1111.0,27.0,1659.0,215.0
244,259.0,-288.0,-1234.0,-7.0,1736.0,374.0
245,90.0,-265.0,-1024.0,-98.0,1764.0,695.0
246,-160.0,5.0,-910.0,-284.0,1767.0,698.0
247,-355.0,327.0,-927.0,-681.0,1588.0,618.0
248,-439.0,156.0,-902.0,-1278.0,1265.0,595.0
249,-400.0,12.0,-863.0,-1786.0,887.0,624.0
250,-290.0,-114.0,-835.0,-2198.0,523.0,663.0
251,-142.0,-290.0,-787.0,-2536.0,216.0,608.0
252,5.0,-431.0,-735.0,-2792.0,-4.0,405.0
253,143.0,-511.0,-682.0,-2992.0,-143.0,127.0
254,295.0,-627.0,-571.0,-3354.0,-209.0,-266.0
255,-276.0,-1620.0,1959.0,-1099.0,-921.0,187.0
256,-488.0,-1801.0,1959.0,-319.0,-656.0,72.0
257,-525.0,-1538.0,1525.0,240.0,-375.0,1287.0
258,596.0,1432.0,-206.0,4943.0,-943.0,2687.0
259,205.0,-929.0,-231.0,2190.0,24.0,3100.0
260,-590.0,-1357.0,-907.0,2999.0,-48.0,3423.0
261,-259.0,-1394.0,-703.0,4112.0,-766.0,2779.0
262,-117.0,-1098.0,33.0,4469.0,-799.0,2111.0
263,-672.0,-326.0,737.0,4356.0,-648.0,1535.0
264,-189.0,-471.0,883.0,3360.0,-646.0,745.0
265,128.0,-534.0,513.0,2275.0,-320.0,447.0
266,-282.0,-979.0,235.0,894.0,-45.0,469.0
267,-84.0,-973.0,142.0,56.0,-45.0,5.0
268,-95.0,-985.0,144.0,91.0,-47.0,3.0
269,-87.0,-994.0,142.0,99.0,-46.0,4.0
270,-82.0,-998.0,140.0,112.0,-45.0,11.0
271,-83.0,-996.0,146.0,126.0,-42.0,20.0
272,-78.0,-1004.0,141.0,138.0,-40.0,31.0
273,-83.0,-1017.0,142.0,151.0,-37.0,44.0
274,-77.0,-1020.0,142.0,168.0,-37.0,55.0
275,-83.0,-1029.0,142.0,187.0,-35.0,66.0
276,-162.0,-1109.0,151.0,315.0,-39.0,96.0
277,105.0,-1959.0,11.0,1932.0,-353.0,67.0
278,250.0,-1959.0,16.0,2221.0,-277.0,85.0
279,147.0,-1959.0,-29.0,2498.0,-107.0,94.0
280,315.0,-1959.0,-53.0,2848.0,-12.0,69.0
281,190.0,-1959.0,-105.0,3165.0,186.0,-119.0
282,148.0,-1959.0,-169.0,3533.0,315.0,-209.0
283,31.0,-1959.0,-110.0,3948.0,414.0,-217.0
284,312.0,-1959.0,-291.0,4217.0,432.0,35.0
285,52.0,-1916.0,-176.0,4506.0,546.0,320.0
286,373.0,-1909.0,-222.0,4668.0,494.0,448.0
287,412.0,-1694.0,-53.0,4725.0,616.0,513.0
288,569.0,-1415.0,-1279.0,4695.0,552.0,1460.0
289,106.0,-1513.0,134.0,-3413.0,541.0,-945.0
290,66.0,-1461.0,199.0,-3379.0,638.0,-977.0
291,-7.0,-1458.0,256.0,-3447.0,690.0,-965.0
292,-36.0,-1660.0,339.0,-3562.0,674.0,-956.0
293,-46.0,-1926.0,439.0,-3572.0,625.0,-1012.0
294,-196.0,-1959.0,553.0,-3419.0,555.0,-1120.0
295,-536.0,-1959.0,662.0,-3199.0,381.0,-1221.0
296,-952.0,-1935.0,775.0,-3012.0,2.0,-1264.0
297,-1332.0,-1927.0,877.0,-2848.0,-606.0,-1240.0
298,-1579.0,-1920.0,926.0,-2633.0,-1422.0,-1173.0
299,-1584.0,-1889.0,957.0,-2358.0,-2357.0,-1122.0
300,-870.0,-1648.0,1075.0,-1762.0,-4046.0,-909.0
301,-452.0,564.0,164.0,3329.0,173.0,23.0
302,-100.0,-972.0,133.0,308.0,-6.0,-40.0
303,-155.0,-957.0,143.0,265.0,-11.0,-81.0
304,23.0,-956.0,127.0,223.0,-58.0,-131.0
305,-17.0,-970.0,118.0,202.0,-40.0,-59.0
306,-78.0,-950.0,131.0,201.0,-29.0,-8.0
307,-69.0,-941.0,139.0,182.0,-37.0,-5.0
308,-52.0,-954.0,135.0,157.0,-39.0,-4.0
309,-43.0,-971.0,124.0,141.0,-35.0,9.0
310,-68.0,-1021.0,134.0,197.0,-38.0,71.0
311,-39.0,-1018.0,137.0,217.0,-34.0,76.0
312,-18.0,-1019.0,137.0,240.0,-24.0,105.0
313,-17.0,-1009.0,137.0,267.0,-10.0,151.0
314,-46.0,-998.0,152.0,289.0,5.0,191.0
315,-66.0,-979.0,156.0,304.0,13.0,214.0
316,-122.0,-927.0,177.0,312.0,22.0,217.0
317,-159.0,-928.0,186.0,287.0,17.0,183.0
318,-128.0,-977.0,174.0,254.0,-1.0,136.0
319,-68.0,-988.0,168.0,247.0,-10.0,112.0
320,-81.0,-995.0,171.0,250.0,1.0,117.0
321,-38.0,-1014.0,164.0,265.0,11.0,134.0
322,-79.0,-884.0,214.0,76.0,-47.0,39.0
323,-80.0,-887.0,211.0,55.0,-39.0,61.0
324,-114.0,-922.0,208.0,33.0,-28.0,75.0
325,-149.0,-939.0,208.0,22.0,-28.0,72.0
326,-140.0,-961.0,206.0,13.0,-35.0,54.0
327,-145.0,-975.0,201.0,13.0,-38.0,37.0
328,-133.0,-956.0,207.0,16.0,-45.0,24.0
329,-141.0,-983.0,201.0,8.0,-46.0,10.0
330,-154.0,-989.0,203.0,13.0,-49.0,-7.0
331,-152.0,-969.0,203.0,19.0,-58.0,-30.0
332,-105.0,-969.0,200.0,16.0,-68.0,-45.0
333,-89.0,-984.0,195.0,33.0,-61.0,-31.0
334,-123.0,-1013.0,205.0,172.0,-99.0,1.0
335,-105.0,-1029.0,199.0,189.0,-107.0,3.0
336,-108.0,-1013.0,209.0,214.0,-106.0,1.0
337,-124.0,-1024.0,208.0,227.0,-103.0,-4.0
338,-138.0,-1002.0,215.0,245.0,-108.0,-4.0
339,-157.0,-1041.0,217.0,252.0,-117.0,-1.0
340,-146.0,-1061.0,214.0,274.0,-133.0,9.0
341,-142.0,-1068.0,218.0,303.0,-145.0,31.0
342,-191.0,-1067.0,223.0,332.0,-155.0,55.0
343,-217.0,-1092.0,235.0,357.0,-183.0,78.0
344,-159.0,-1144.0,228.0,388.0,-223.0,71.0
345,-155.0,-1175.0,225.0,439.0,-228.0,61.0
346,-46.0,-1265.0,217.0,501.0,-249.0,109.0
347,19.0,-1257.0,211.0,587.0,-242.0,109.0
348,-46.0,-1295.0,253.0,802.0,-232.0,205.0
349,-494.0,-1576.0,-641.0,-644.0,-7272.0,3482.0
350,537.0,-517.0,-925.0,-870.0,-2232.0,1358.0
351,554.0,-445.0,-883.0,-1120.0,-1902.0,1337.0
352,505.0,-429.0,-829.0,-1406.0,-1606.0,1254.0
353,455.0,-501.0,-765.0,-1692.0,-1383.0,1190.0
354,407.0,-577.0,-685.0,-1935.0,-1229.0,1147.0
355,376.0,-657.0,-605.0,-2150.0,-1140.0,1095.0
356,379.0,-728.0,-531.0,-2344.0,-1105.0,1010.0
357,412.0,-783.0,-467.0,-2525.0,-1104.0,891.0
358,445.0,-860.0,-394.0,-2701.0,-1111.0,708.0
359,467.0,-1026.0,-312.0,-2859.0,-1120.0,470.0
360,474.0,-1189.0,-201.0,-2939.0,-1131.0,209.0
361,418.0,-1448.0,21.0,-2873.0,-1152.0,-306.0
362,-156.0,-1356.0,878.0,-2226.0,243.0,-1907.0
363,-458.0,-1321.0,1050.0,-2069.0,-89.0,-1451.0
364,-464.0,-1259.0,1136.0,-1934.0,-300.0,-953.0
365,-336.0,-1308.0,1216.0,-1770.0,-458.0,-399.0
366,-154.0,-1347.0,1323.0,-1517.0,-497.0,44.0
367,36.0,-1239.0,1437.0,-1207.0,-410.0,256.0
368,131.0,-1140.0,1536.0,-942.0,-204.0,177.0
369,-251.0,-1751.0,1523.0,-832.0,101.0,233.0
370,-149.0,-906.0,1572.0,730.0,157.0,964.0
371,-554.0,-971.0,312.0,2766.0,-15.0,722.0
372,-372.0,-657.0,448.0,2464.0,-296.0,428.0
373,-67.0,-761.0,301.0,1901.0,-372.0,142.0
374,96.0,-848.0,215.0,1511.0,-305.0,69.0
375,-25.0,-797.0,263.0,1178.0,-137.0,73.0
376,-21.0,-781.0,211.0,852.0,-124.0,118.0
377,-30.0,-930.0,107.0,643.0,-134.0,159.0
378,-19.0,-870.0,124.0,573.0,-115.0,159.0
379,-117.0,-875.0,147.0,476.0,-58.0,106.0
380,-54.0,-945.0,106.0,376.0,-60.0,29.0
381,12.0,-924.0,121.0,323.0,-65.0,32.0
382,-44.0,-934.0,119.0,251.0,-35.0,69.0
383,-55.0,-954.0,100.0,192.0,-25.0,63.0
384,-44.0,-958.0,94.0,159.0,-23.0,52.0
385,-55.0,-960.0,94.0,119.0,-7.0,55.0
386,-61.0,-987.0,88.0,31.0,-34.0,7.0
387,-60.0,-994.0,85.0,27.0,-38.0,2.0
388,-62.0,-994.0,83.0,27.0,-41.0,-5.0
389,-60.0,-988.0,87.0,30.0,-44.0,-10.0
390,-70.0,-971.0,98.0,27.0,-47.0,-16.0
391,-71.0,-985.0,89.0,12.0,-53.0,-31.0
392,-68.0,-1003.0,83.0,7.0,-59.0,-48.0
393,-69.0,-996.0,86.0,12.0,-66.0,-62.0
394,-58.0,-999.0,82.0,13.0,-73.0,-76.0
395,-59.0,-988.0,85.0,17.0,-74.0,-84.0
396,-51.0,-983.0,86.0,17.0,-77.0,-91.0
397,-40.0,-986.0,82.0,21.0,-76.0,-89.0
398,-50.0,-989.0,90.0,84.0,-48.0,8.0
399,-45.0,-988.0,87.0,86.0,-48.0,6.0
400,-56.0,-991.0,91.0,91.0,-46.0,5.0
401,-51.0,-992.0,88.0,95.0,-47.0,-4.0
402,-38.0,-990.0,88.0,102.0,-46.0,-5.0
403,-46.0,-998.0,87.0,107.0,-43.0,-1.0
404,-44.0,-999.0,89.0,116.0,-42.0,4.0
405,-30.0,-1008.0,83.0,126.0,-41.0,14.0
406,-36.0,-1011.0,85.0,142.0,-39.0,35.0
407,-38.0,-1012.0,88.0,160.0,-38.0,54.0
408,-55.0,-1024.0,89.0,172.0,-38.0,68.0
409,-61.0,-1041.0,86.0,188.0,-39.0,68.0
410,-73.0,-1039.0,94.0,207.0,-39.0,55.0
411,-84.0,-1048.0,96.0,223.0,-40.0,33.0
412,-348.0,-1959.0,7.0,1862.0,-149.0,-503.0
413,37.0,-1959.0,-80.0,2263.0,-308.0,-465.0
414,-150.0,-1959.0,-70.0,2575.0,-228.0,-621.0
415,-208.0,-1959.0,-132.0,2869.0,-241.0,-602.0
416,23.0,-1959.0,-189.0,3265.0,-285.0,-745.0
417,-482.0,-1959.0,-222.0,3556.0,-103.0,-1000.0
418,-437.0,-1959.0,-194.0,3970.0,-207.0,-1086.0
419,-73.0,-1959.0,-332.0,4396.0,-288.0,-1325.0
420,-251.0,-1959.0,-255.0,4749.0,-168.0,-1665.0
421,6.0,-1959.0,-146.0,5092.0,-182.0,-1882.0
422,161.0,-1959.0,-87.0,5193.0,-108.0,-1632.0
423,160.0,-1663.0,-323.0,5324.0,-50.0,-1181.0
424,529.0,-305.0,-1249.0,-152.0,738.0,1186.0
425,196.0,-409.0,-616.0,-3424.0,-732.0,94.0
426,386.0,-671.0,-540.0,-3895.0,-715.0,-117.0
427,498.0,-865.0,-480.0,-4098.0,-610.0,-82.0
428,621.0,-1143.0,-346.0,-4246.0,-418.0,-68.0
429,673.0,-1458.0,-173.0,-4283.0,-126.0,-140.0
430,626.0,-1728.0,-14.0,-4178.0,228.0,-296.0
431,433.0,-1776.0,103.0,-3977.0,583.0,-457.0
432,156.0,-1669.0,169.0,-3850.0,841.0,-615.0
433,-9.0,-1732.0,197.0,-3885.0,936.0,-745.0
434,-105.0,-1920.0,288.0,-3960.0,911.0,-750.0
435,-232.0,-1959.0,448.0,-3974.0,785.0,-633.0
436,-371.0,-1959.0,646.0,-3919.0,533.0,-511.0
437,-463.0,-1959.0,885.0,-3853.0,149.0,-463.0
438,-216.0,-1053.0,-41.0,3084.0,422.0,1390.0
439,-258.0,-731.0,399.0,3093.0,-121.0,1123.0
440,-618.0,-421.0,771.0,2634.0,-331.0,946.0
441,-38.0,-371.0,645.0,1732.0,-464.0,616.0
442,90.0,-789.0,259.0,898.0,-196.0,524.0
443,-329.0,-1086.0,78.0,636.0,-18.0,502.0
444,-175.0,-960.0,95.0,615.0,-92.0,283.0
445,-103.0,-830.0,184.0,539.0,-93.0,175.0
446,-96.0,-882.0,153.0,296.0,-31.0,83.0
447,-97.0,-973.0,104.0,32.0,-46.0,-30.0
448,-96.0,-975.0,101.0,30.0,-44.0,-28.0
449,-89.0,-977.0,100.0,31.0,-43.0,-21.0
450,-88.0,-979.0,99.0,35.0,-40.0,-11.0
451,-93.0,-980.0,99.0,41.0,-37.0,1.0
452,-95.0,-983.0,100.0,45.0,-35.0,8.0