sequence,AccelerometerX,AccelerometerY,AccelerometerZ,GyroscopeX,GyroscopeY,GyroscopeZ,Speed
0,-98.0,-969.0,40.0,445.0,-18.0,178.0,0.55
1,-83.0,-1073.0,-16.0,385.0,-16.0,135.0,0.55
2,-107.0,-1055.0,6.0,-111.0,-56.0,-128.0,0.55
3,-84.0,-1044.0,15.0,-62.0,-54.0,-121.0,0.55
4,-122.0,-1002.0,40.0,-30.0,-50.0,-99.0,0.55
5,-115.0,-993.0,38.0,-28.0,-53.0,-106.0,0.55
6,-84.0,-1006.0,22.0,-21.0,-54.0,-109.0,0.55
7,-83.0,-1004.0,29.0,-4.0,-48.0,-91.0,0.55
8,-87.0,-996.0,34.0,7.0,-46.0,-68.0,0.55
9,-80.0,-990.0,34.0,12.0,-44.0,-49.0,0.55
10,-88.0,-984.0,41.0,16.0,-41.0,-26.0,0.55
11,-101.0,-986.0,40.0,15.0,-38.0,-11.0,0.55
12,-102.0,-987.0,38.0,14.0,-38.0,-8.0,0.55
13,-103.0,-988.0,37.0,13.0,-38.0,-5.0,0.55
14,-101.0,-987.0,37.0,12.0,-38.0,-6.0,0.55
15,-101.0,-986.0,37.0,12.0,-38.0,-4.0,0.55
16,-102.0,-979.0,41.0,12.0,-38.0,-2.0,0.55
17,-96.0,-984.0,38.0,5.0,-37.0,0.0,0.55
18,-130.0,-986.0,41.0,0.0,-38.0,33.0,0.55
19,-121.0,-986.0,38.0,-12.0,-40.0,10.0,0.55
20,-121.0,-991.0,33.0,-19.0,-42.0,0.0,0.55
21,-135.0,-999.0,31.0,-20.0,-44.0,-11.0,0.55
22,-131.0,-1026.0,18.0,-20.0,-48.0,-33.0,0.55
23,-131.0,-1025.0,22.0,-9.0,-51.0,-51.0,0.55
24,-126.0,-1062.0,0.0,-2.0,-57.0,-62.0,0.55
25,-127.0,-1087.0,-2.0,18.0,-66.0,-70.0,0.55
26,-100.0,-1104.0,-7.0,39.0,-81.0,-75.0,0.55
27,16.0,-1203.0,-70.0,54.0,-76.0,-91.0,0.55
28,-113.0,-1443.0,-164.0,118.0,5.0,-117.0,0.55
29,-251.0,-1713.0,-174.0,301.0,52.0,-208.0,0.55
30,334.0,-1959.0,-400.0,655.0,96.0,-647.0,0.55
31,-513.0,-1959.0,-334.0,2392.0,235.0,-1413.0,0.55
32,-320.0,-189.0,-873.0,1013.0,-373.0,-298.0,0.55
33,-464.0,62.0,-882.0,745.0,-350.0,-164.0,0.55
34,-404.0,-4.0,-873.0,342.0,-460.0,21.0,0.0
35,-310.0,-116.0,-833.0,14.0,-565.0,121.0,0.0
36,-268.0,-134.0,-788.0,-223.0,-632.0,199.0,0.0
37,-254.0,-75.0,-766.0,-459.0,-701.0,346.0,0.0
38,-176.0,-51.0,-740.0,-757.0,-782.0,504.0,0.0
39,-170.0,-206.0,-721.0,-1101.0,-824.0,588.0,0.0
40,-178.0,-374.0,-671.0,-1385.0,-869.0,629.0,0.0
41,-222.0,-455.0,-622.0,-1603.0,-927.0,708.0,0.0
42,-230.0,-554.0,-588.0,-1809.0,-1020.0,805.0,0.0
43,-78.0,-753.0,-509.0,-2168.0,-1221.0,925.0,0.0
44,553.0,-1781.0,150.0,-2406.0,-920.0,-320.0,0.0
45,-584.0,-1517.0,772.0,-758.0,1316.0,-4.0,0.0
46,-624.0,-1354.0,673.0,-354.0,771.0,-67.0,0.0
47,-476.0,-1106.0,550.0,-39.0,183.0,-37.0,0.0
48,-148.0,-1002.0,427.0,150.0,-328.0,103.0,0.0
49,183.0,-1056.0,330.0,293.0,-637.0,321.0,0.0
50,497.0,-1117.0,276.0,484.0,-719.0,614.0,0.0
51,774.0,-1000.0,285.0,712.0,-562.0,954.0,0.0
52,1094.0,-476.0,383.0,818.0,-183.0,1203.0,0.0
53,1370.0,-138.0,449.0,557.0,423.0,1137.0,0.0
54,1299.0,-404.0,373.0,105.0,1179.0,1010.0,0.0
55,1070.0,-998.0,528.0,-152.0,1886.0,1147.0,0.0
56,-1174.0,-666.0,-379.0,2886.0,2613.0,2671.0,0.0
57,-35.0,-958.0,7.0,461.0,-75.0,136.0,0.0
58,12.0,-908.0,62.0,441.0,-66.0,206.0,0.0
59,-130.0,-980.0,24.0,373.0,-8.0,257.0,0.0
60,-124.0,-991.0,15.0,346.0,-1.0,226.0,0.0
61,-153.0,-965.0,39.0,322.0,-6.0,200.0,0.0
62,-161.0,-973.0,40.0,273.0,-14.0,145.0,0.0
63,-140.0,-984.0,27.0,231.0,-24.0,83.0,0.0
64,-127.0,-995.0,18.0,208.0,-32.0,45.0,0.0
65,-125.0,-982.0,34.0,193.0,-38.0,20.0,0.0
66,-122.0,-991.0,24.0,172.0,-44.0,2.0,0.0
67,-109.0,-990.0,25.0,160.0,-49.0,-14.0,0.0
68,-78.0,-994.0,26.0,144.0,-49.0,9.0,0.0
69,-115.0,-969.0,41.0,97.0,-33.0,-18.0,0.0
70,-116.0,-980.0,47.0,97.0,-25.0,20.0,0.0
71,-116.0,-980.0,46.0,93.0,-25.0,13.0,0.0
72,-133.0,-978.0,54.0,86.0,-23.0,4.0,0.61
73,-123.0,-980.0,51.0,78.0,-26.0,-11.0,0.61
74,-110.0,-988.0,48.0,71.0,-27.0,-23.0,0.61
75,-107.0,-1024.0,32.0,73.0,-24.0,-28.0,0.61
76,-53.0,-1027.0,27.0,94.0,-24.0,-27.0,0.61
77,-90.0,-1024.0,33.0,119.0,-5.0,-13.0,0.61
78,-139.0,-1008.0,42.0,139.0,7.0,-20.0,0.61
79,-128.0,-1006.0,45.0,151.0,5.0,-46.0,0.61
80,-126.0,-1022.0,38.0,161.0,7.0,-74.0,0.61
81,-77.0,-1061.0,35.0,205.0,20.0,-110.0,0.61
82,-234.0,-1959.0,-177.0,1826.0,-313.0,-1018.0,0.61
83,-78.0,19.0,-622.0,1817.0,399.0,-1270.0,0.61
84,296.0,-509.0,-1140.0,1077.0,450.0,175.0,0.61
85,746.0,-592.0,-1014.0,684.0,859.0,216.0,0.61
86,103.0,-375.0,-983.0,471.0,1532.0,89.0,0.61
87,-367.0,50.0,-979.0,178.0,1744.0,395.0,0.61
88,-529.0,-197.0,-952.0,-307.0,1631.0,775.0,0.61
89,-747.0,-379.0,-889.0,-583.0,1413.0,1014.0,0.61
90,-949.0,-315.0,-827.0,-708.0,1060.0,1113.0,0.61
91,-1064.0,-243.0,-796.0,-868.0,566.0,1105.0,0.61
92,-956.0,-304.0,-767.0,-1068.0,-34.0,1024.0,0.61
93,687.0,-1604.0,-142.0,-3239.0,-1927.0,1122.0,0.61
94,783.0,-1596.0,-104.0,-3268.0,-1976.0,1092.0,0.61
95,903.0,-1678.0,-71.0,-3313.0,-2008.0,1063.0,0.61
96,1072.0,-1824.0,-26.0,-3299.0,-1979.0,1084.0,0.61
97,1230.0,-1876.0,63.0,-3183.0,-1820.0,1091.0,0.61
98,1281.0,-1730.0,170.0,-3063.0,-1497.0,990.0,0.61
99,1281.0,-1733.0,264.0,-3062.0,-1079.0,888.0,0.61
100,1200.0,-1752.0,386.0,-3064.0,-627.0,964.0,0.61
101,1290.0,-1691.0,521.0,-3033.0,-218.0,1153.0,0.61
102,1484.0,-1758.0,649.0,-2969.0,218.0,1254.0,0.61
103,1554.0,-1783.0,802.0,-2799.0,726.0,1098.0,0.61
104,815.0,-1824.0,1096.0,-2209.0,1641.0,75.0,0.61
105,554.0,-799.0,255.0,613.0,-540.0,230.0,0.61
106,750.0,-770.0,243.0,597.0,-404.0,347.0,0.61
107,1025.0,-1011.0,533.0,527.0,-129.0,496.0,0.61
108,424.0,385.0,210.0,1992.0,152.0,1455.0,0.61
109,74.0,-1110.0,-659.0,3060.0,735.0,2301.0,0.61
110,-709.0,-1023.0,-224.0,3361.0,716.0,2028.0,0.61
111,-638.0,-1345.0,-429.0,3296.0,285.0,1318.0,0.61
112,-131.0,-1265.0,-204.0,3368.0,36.0,803.0,0.61
113,69.0,-738.0,338.0,1314.0,-83.0,-454.0,0.61
114,-97.0,-969.0,42.0,201.0,-55.0,131.0,0.61
115,-86.0,-988.0,33.0,177.0,-46.0,68.0,0.61
116,-78.0,-980.0,38.0,158.0,-41.0,26.0,0.59
117,-75.0,-975.0,40.0,136.0,-32.0,-10.0,0.59
118,-54.0,-986.0,24.0,117.0,-29.0,-36.0,0.59
119,-44.0,-998.0,17.0,114.0,-28.0,-35.0,0.59
120,-42.0,-1002.0,14.0,123.0,-30.0,-16.0,0.59
121,-33.0,-994.0,23.0,135.0,-37.0,12.0,0.59
122,-53.0,-1008.0,16.0,140.0,-38.0,44.0,0.59
123,-61.0,-1000.0,24.0,153.0,-41.0,60.0,0.59
124,-62.0,-994.0,30.0,158.0,-46.0,65.0,0.59
125,-61.0,-993.0,33.0,157.0,-50.0,66.0,0.59
126,-63.0,-987.0,49.0,103.0,-39.0,80.0,0.59
127,-72.0,-995.0,49.0,103.0,-36.0,83.0,0.59
128,-75.0,-988.0,54.0,101.0,-34.0,79.0,0.59
129,-84.0,-995.0,51.0,99.0,-32.0,68.0,0.59
130,-90.0,-999.0,50.0,97.0,-30.0,51.0,0.59
131,-100.0,-1003.0,50.0,98.0,-29.0,30.0,0.59
132,-91.0,-997.0,52.0,100.0,-31.0,7.0,0.59
133,-88.0,-1007.0,49.0,102.0,-29.0,-14.0,0.59
134,-89.0,-1002.0,52.0,110.0,-30.0,-28.0,0.59
135,-65.0,-988.0,55.0,115.0,-33.0,-41.0,0.59
136,-79.0,-1005.0,53.0,118.0,-29.0,-46.0,0.59
137,-73.0,-1021.0,49.0,140.0,-33.0,-80.0,0.59
138,-6.0,-1235.0,66.0,528.0,55.0,-484.0,0.59
139,-18.0,-1959.0,-435.0,3999.0,363.0,-3300.0,0.59
140,53.0,-1959.0,-368.0,4139.0,612.0,-3806.0,0.59
141,-154.0,-1803.0,-288.0,4167.0,855.0,-4050.0,0.59
142,-162.0,-1766.0,-385.0,4053.0,1017.0,-4415.0,0.59
143,-392.0,-1951.0,-527.0,3838.0,1305.0,-4731.0,0.59
144,-33.0,-1808.0,-953.0,3974.0,1399.0,-5017.0,0.59
145,175.0,1040.0,-1145.0,4144.0,1632.0,-5071.0,0.59
146,-684.0,1891.0,-530.0,2935.0,1725.0,-3285.0,0.59
147,-1048.0,-311.0,-699.0,591.0,1192.0,-482.0,0.59
148,-618.0,62.0,-672.0,-284.0,1415.0,-11.0,0.59
149,59.0,-847.0,-427.0,-2837.0,-1657.0,979.0,0.59
150,205.0,-1003.0,-374.0,-2940.0,-1733.0,996.0,0.59
151,353.0,-1175.0,-317.0,-3010.0,-1737.0,1020.0,0.59
152,471.0,-1310.0,-263.0,-3042.0,-1671.0,1048.0,0.59
153,510.0,-1402.0,-212.0,-3057.0,-1557.0,1065.0,0.59
154,503.0,-1466.0,-150.0,-3082.0,-1456.0,1061.0,0.59
155,495.0,-1538.0,-102.0,-3130.0,-1407.0,1037.0,0.59
156,555.0,-1629.0,-59.0,-3183.0,-1424.0,991.0,0.59
157,669.0,-1699.0,-23.0,-3207.0,-1470.0,934.0,0.59
158,795.0,-1696.0,10.0,-3209.0,-1508.0,870.0,0.59
159,881.0,-1685.0,37.0,-3220.0,-1522.0,784.0,0.59
160,991.0,-1750.0,60.0,-3228.0,-1519.0,680.0,0.59
161,1113.0,-1828.0,106.0,-3172.0,-1472.0,564.0,0.66
162,1185.0,-1889.0,172.0,-3038.0,-1357.0,414.0,0.66
163,1201.0,-1859.0,261.0,-2838.0,-1196.0,242.0,0.66
164,1144.0,-1333.0,397.0,-2700.0,-878.0,108.0,0.66
165,-389.0,-1373.0,1261.0,-882.0,1003.0,542.0,0.66
166,-111.0,-763.0,268.0,3248.0,-730.0,409.0,0.66
167,-27.0,-988.0,173.0,2607.0,-449.0,145.0,0.66
168,-214.0,-919.0,195.0,2242.0,-215.0,-11.0,0.66
169,-116.0,-604.0,362.0,1848.0,-157.0,-206.0,0.66
170,210.0,-591.0,438.0,1261.0,-267.0,-96.0,0.66
171,-21.0,-995.0,37.0,741.0,-223.0,157.0,0.66
172,-9.0,-981.0,-47.0,626.0,-215.0,204.0,0.66
173,-67.0,-848.0,78.0,637.0,-185.0,202.0,0.66
174,7.0,-850.0,92.0,544.0,-174.0,174.0,0.66
175,62.0,-945.0,41.0,435.0,-159.0,230.0,0.66
176,-17.0,-997.0,8.0,389.0,-122.0,324.0,0.66
177,-65.0,-968.0,36.0,355.0,-66.0,398.0,0.66
178,-105.0,-977.0,41.0,108.0,-45.0,87.0,0.66
179,-110.0,-987.0,37.0,96.0,-46.0,72.0,0.66
180,-118.0,-994.0,34.0,89.0,-48.0,53.0,0.66
181,-105.0,-996.0,30.0,86.0,-52.0,33.0,0.66
182,-108.0,-996.0,29.0,88.0,-54.0,21.0,0.66
183,-109.0,-979.0,39.0,91.0,-54.0,7.0,0.66
184,-97.0,-974.0,41.0,86.0,-55.0,-4.0,0.66
185,-93.0,-969.0,44.0,83.0,-54.0,-6.0,0.66
186,-97.0,-972.0,44.0,78.0,-51.0,-8.0,0.66
187,-100.0,-976.0,44.0,70.0,-39.0,28.0,0.66
188,-112.0,-998.0,42.0,68.0,-45.0,-4.0,0.66
189,-124.0,-1000.0,44.0,69.0,-45.0,-17.0,0.66
190,-117.0,-993.0,49.0,65.0,-46.0,-41.0,0.66
191,-105.0,-1005.0,38.0,58.0,-46.0,-61.0,0.66
192,-90.0,-994.0,43.0,62.0,-49.0,-65.0,0.66
193,-94.0,-1001.0,41.0,67.0,-48.0,-56.0,0.66
194,-93.0,-1002.0,44.0,77.0,-49.0,-49.0,0.66
195,-87.0,-1011.0,39.0,86.0,-49.0,-44.0,0.66
196,-86.0,-1006.0,37.0,99.0,-50.0,-33.0,0.66
197,-96.0,-1003.0,46.0,110.0,-47.0,-27.0,0.66
198,-101.0,-1008.0,43.0,120.0,-47.0,-26.0,0.66
199,-329.0,-1959.0,-351.0,2589.0,-126.0,-1042.0,0.66
200,-74.0,-1959.0,-319.0,2955.0,-180.0,-1118.0,0.66
201,-18.0,-1959.0,-300.0,3277.0,-74.0,-1368.0,0.66
202,81.0,-1959.0,-411.0,3586.0,56.0,-1548.0,0.66
203,23.0,-1949.0,-461.0,3886.0,192.0,-1671.0,0.66
204,199.0,-1917.0,-446.0,4079.0,302.0,-1712.0,0.66
205,74.0,-1570.0,-193.0,4256.0,470.0,-1878.0,0.68
206,285.0,-1489.0,-434.0,4144.0,554.0,-1933.0,0.68
207,279.0,-1772.0,-296.0,4019.0,685.0,-1910.0,0.68
208,927.0,1728.0,-1056.0,3935.0,1154.0,-1934.0,0.68
209,-301.0,-153.0,-574.0,-1465.0,-676.0,-104.0,0.68
210,398.0,-1343.0,-45.0,-3127.0,-715.0,-455.0,0.68
211,403.0,-1310.0,11.0,-3189.0,-544.0,-400.0,0.68
212,320.0,-1402.0,51.0,-3309.0,-375.0,-465.0,0.68
213,215.0,-1600.0,88.0,-3396.0,-261.0,-585.0,0.68
214,126.0,-1692.0,125.0,-3386.0,-218.0,-647.0,0.68
215,-32.0,-1608.0,172.0,-3351.0,-229.0,-663.0,0.68
216,-281.0,-1566.0,200.0,-3384.0,-327.0,-716.0,0.68
217,-508.0,-1632.0,228.0,-3440.0,-555.0,-776.0,0.68
218,-630.0,-1726.0,273.0,-3438.0,-884.0,-806.0,0.68
219,-576.0,-1829.0,332.0,-3352.0,-1238.0,-793.0,0.68
220,-407.0,-1857.0,426.0,-3189.0,-1516.0,-670.0,0.68
221,153.0,-1782.0,669.0,-2891.0,-1689.0,231.0,0.68
222,-145.0,-890.0,78.0,525.0,-134.0,-14.0,0.68
223,-12.0,-955.0,22.0,419.0,-150.0,-99.0,0.68
224,-10.0,-970.0,1.0,373.0,-146.0,-58.0,0.68
225,-50.0,-979.0,10.0,348.0,-127.0,-25.0,0.68
226,-41.0,-992.0,4.0,329.0,-121.0,-26.0,0.68
227,-45.0,-956.0,34.0,319.0,-121.0,-15.0,0.68
228,-55.0,-963.0,20.0,285.0,-119.0,-4.0,0.68
229,-40.0,-952.0,24.0,262.0,-114.0,-14.0,0.68
230,-60.0,-990.0,22.0,115.0,-55.0,-122.0,0.68
231,-48.0,-986.0,25.0,33.0,-41.0,-70.0,0.68
232,-37.0,-978.0,29.0,39.0,-40.0,-77.0,0.68
233,-33.0,-988.0,21.0,39.0,-38.0,-75.0,0.68
234,-26.0,-986.0,25.0,43.0,-37.0,-67.0,0.68
235,-18.0,-988.0,24.0,42.0,-36.0,-55.0,0.68
236,-25.0,-990.0,24.0,43.0,-35.0,-37.0,0.68
237,-29.0,-992.0,22.0,46.0,-35.0,-21.0,0.68
238,-33.0,-993.0,20.0,51.0,-37.0,-8.0,0.68
239,-31.0,-989.0,22.0,56.0,-41.0,4.0,0.68
240,-39.0,-978.0,29.0,58.0,-41.0,11.0,0.68
241,-52.0,-973.0,33.0,56.0,-39.0,8.0,0.68
242,-35.0,-984.0,29.0,43.0,-37.0,-30.0,0.68
243,-58.0,-993.0,27.0,74.0,-53.0,116.0,0.79
244,-155.0,-1273.0,-35.0,244.0,-105.0,-206.0,0.79
245,-196.0,-1326.0,-50.0,381.0,-132.0,-270.0,0.79
246,-299.0,-1231.0,10.0,525.0,-179.0,-335.0,0.79
247,-37.0,-1223.0,-5.0,616.0,-321.0,-357.0,0.79
248,-62.0,-1190.0,-15.0,694.0,-307.0,-386.0,0.79
249,364.0,-1334.0,-17.0,733.0,-252.0,-625.0,0.79
250,18.0,-1650.0,-38.0,800.0,69.0,-1108.0,0.79
251,127.0,-1959.0,-335.0,992.0,226.0,-1538.0,0.79
252,-1018.0,-1959.0,-308.0,1380.0,385.0,-1775.0,0.79
253,-485.0,-1959.0,-457.0,2011.0,-131.0,-1376.0,0.79
254,-191.0,-1959.0,-500.0,2684.0,-228.0,-1714.0,0.79
255,61.0,-1959.0,-626.0,3672.0,-295.0,-2343.0,0.79
256,-734.0,276.0,-811.0,-126.0,2488.0,2076.0,0.79
257,-808.0,-33.0,-732.0,-974.0,1617.0,2632.0,0.79
258,-676.0,-129.0,-662.0,-1185.0,1176.0,2568.0,0.79
259,-570.0,-103.0,-617.0,-1319.0,781.0,2363.0,0.79
260,-433.0,-29.0,-592.0,-1491.0,402.0,2158.0,0.79
261,-228.0,-106.0,-571.0,-1744.0,75.0,1967.0,0.79
262,-67.0,-285.0,-546.0,-1988.0,-160.0,1796.0,0.79
263,-27.0,-856.0,-257.0,-2724.0,-996.0,939.0,0.79
264,514.0,-1772.0,202.0,-2626.0,-1489.0,380.0,0.79
265,508.0,-1699.0,250.0,-2445.0,-1421.0,539.0,0.79
266,473.0,-1436.0,282.0,-2355.0,-1338.0,430.0,0.79
267,391.0,-1173.0,300.0,-2480.0,-1280.0,60.0,0.79
268,307.0,-1417.0,294.0,-2759.0,-1297.0,-407.0,0.79
269,273.0,-1817.0,338.0,-2840.0,-1386.0,-606.0,0.79
270,274.0,-1893.0,429.0,-2629.0,-1488.0,-552.0,0.79
271,389.0,-1803.0,532.0,-2316.0,-1555.0,-487.0,0.79
272,582.0,-1703.0,630.0,-2036.0,-1524.0,-499.0,0.79
273,182.0,-1111.0,-555.0,2588.0,95.0,30.0,0.79
274,-72.0,-1177.0,-269.0,2717.0,-77.0,383.0,0.79
275,-283.0,-999.0,-15.0,2792.0,-256.0,501.0,0.79
276,-215.0,-856.0,163.0,2592.0,-400.0,351.0,0.79
277,50.0,-860.0,216.0,2205.0,-362.0,224.0,0.79
278,-32.0,-943.0,144.0,1794.0,-153.0,210.0,0.45
279,-178.0,-1005.0,57.0,1512.0,-27.0,169.0,0.45
280,-179.0,-1065.0,-5.0,1338.0,-42.0,76.0,0.45
281,2.0,-988.0,30.0,1247.0,-112.0,64.0,0.45
282,-38.0,-1035.0,-37.0,1124.0,-101.0,181.0,0.45
283,-109.0,-988.0,-41.0,1108.0,-97.0,259.0,0.45
284,-19.0,-716.0,183.0,1119.0,-114.0,294.0,0.45
285,54.0,-634.0,261.0,876.0,-81.0,366.0,0.45
286,-112.0,-1010.0,24.0,86.0,-50.0,-29.0,0.45
287,-119.0,-991.0,33.0,92.0,-52.0,-25.0,0.45
288,-140.0,-982.0,39.0,88.0,-54.0,-33.0,0.45
289,-138.0,-988.0,34.0,77.0,-60.0,-64.0,0.45
290,-123.0,-988.0,34.0,72.0,-65.0,-91.0,0.45
291,-109.0,-979.0,39.0,71.0,-69.0,-102.0,0.45
292,-96.0,-970.0,41.0,67.0,-67.0,-105.0,0.45
293,-97.0,-965.0,44.0,61.0,-62.0,-99.0,0.45
294,-88.0,-964.0,44.0,53.0,-57.0,-93.0,0.45
295,-83.0,-973.0,40.0,47.0,-52.0,-78.0,0.45
296,-89.0,-974.0,41.0,45.0,-48.0,-58.0,0.45
297,-98.0,-983.0,37.0,44.0,-44.0,-43.0,0.45
298,-92.0,-990.0,33.0,47.0,-42.0,-36.0,0.45
299,-96.0,-991.0,33.0,53.0,-39.0,-27.0,0.45
300,-110.0,-991.0,46.0,124.0,-38.0,12.0,0.45
301,-113.0,-983.0,52.0,124.0,-38.0,0.0,0.45
302,-108.0,-989.0,48.0,121.0,-39.0,-8.0,0.45
303,-101.0,-988.0,48.0,123.0,-38.0,-11.0,0.45
304,-101.0,-987.0,51.0,123.0,-38.0,-10.0,0.45
305,-90.0,-980.0,53.0,124.0,-38.0,-5.0,0.45
306,-99.0,-1000.0,46.0,124.0,-35.0,2.0,0.45
307,-91.0,-1005.0,49.0,131.0,-35.0,6.0,0.45
308,-90.0,-1015.0,47.0,139.0,-35.0,17.0,0.45
309,-84.0,-1016.0,45.0,154.0,-31.0,21.0,0.45
310,-101.0,-989.0,59.0,167.0,-23.0,24.0,0.45
311,-148.0,-969.0,68.0,166.0,-21.0,2.0,0.45
312,-205.0,-1804.0,-70.0,1300.0,-129.0,-429.0,0.45
313,137.0,541.0,-574.0,1330.0,735.0,-1214.0,0.45
314,278.0,-271.0,-405.0,581.0,1024.0,-316.0,0.45
315,-295.0,18.0,-679.0,242.0,1474.0,445.0,0.45
316,-193.0,-292.0,-595.0,-201.0,1542.0,1048.0,0.45
317,-281.0,-328.0,-565.0,-400.0,1633.0,1240.0,0.45
318,-446.0,-204.0,-548.0,-553.0,1630.0,1188.0,0.45
319,-716.0,-324.0,-528.0,-752.0,1452.0,1200.0,0.45
320,-708.0,-354.0,-500.0,-872.0,1054.0,1319.0,0.45
321,-540.0,-328.0,-472.0,-980.0,642.0,1315.0,0.45
322,-412.0,-355.0,-452.0,-1120.0,318.0,1143.0,0.45
323,-335.0,-379.0,-424.0,-1270.0,54.0,925.0,0.45
324,-345.0,-547.0,-343.0,-1597.0,-396.0,647.0,0.45
325,259.0,-931.0,543.0,-337.0,-371.0,99.0,0.55
326,198.0,-962.0,478.0,-363.0,-316.0,100.0,0.55
327,121.0,-1035.0,430.0,-337.0,-292.0,95.0,0.55
328,64.0,-977.0,392.0,-239.0,-300.0,65.0,0.55
329,56.0,-895.0,337.0,-159.0,-329.0,54.0,0.55
330,76.0,-871.0,272.0,-121.0,-352.0,81.0,0.55
331,115.0,-890.0,215.0,-94.0,-352.0,106.0,0.55
332,159.0,-942.0,171.0,-43.0,-317.0,136.0,0.55
333,387.0,-1911.0,407.0,103.0,-252.0,-47.0,0.55
334,285.0,-42.0,459.0,1088.0,180.0,19.0,0.55
335,-86.0,-968.0,0.0,124.0,-42.0,-59.0,0.55
336,-95.0,-960.0,8.0,109.0,-39.0,-60.0,0.55
337,-66.0,-981.0,-2.0,93.0,-41.0,-62.0,0.55
338,-51.0,-1005.0,-24.0,97.0,-37.0,-34.0,0.55
339,-60.0,-991.0,-13.0,122.0,-30.0,9.0,0.55