sequence,AccelerometerX,AccelerometerY,AccelerometerZ,GyroscopeX,GyroscopeY,GyroscopeZ,Speed
0,-115.0,-977.0,-25.0,75.0,-33.0,50.0,0.36
1,-117.0,-960.0,-11.0,67.0,-30.0,30.0,0.36
2,-117.0,-955.0,-4.0,40.0,-28.0,6.0,0.36
3,-110.0,-970.0,-14.0,4.0,-27.0,-16.0,0.36
4,-109.0,-986.0,-25.0,-21.0,-26.0,-31.0,0.36
5,-108.0,-993.0,-33.0,-30.0,-27.0,-42.0,0.36
6,-106.0,-994.0,-33.0,-35.0,-27.0,-52.0,0.36
7,-103.0,-986.0,-33.0,-36.0,-28.0,-60.0,0.36
8,-99.0,-979.0,-29.0,-41.0,-28.0,-66.0,0.36
9,-95.0,-993.0,-44.0,101.0,-43.0,22.0,0.36
10,-89.0,-968.0,-11.0,134.0,-25.0,-20.0,0.36
11,-89.0,-978.0,-15.0,117.0,-26.0,-13.0,0.36
12,-90.0,-981.0,-18.0,108.0,-24.0,-9.0,0.36
13,-98.0,-985.0,-17.0,101.0,-24.0,-6.0,0.36
14,-103.0,-979.0,-9.0,90.0,-25.0,-11.0,0.36
15,-94.0,-982.0,-13.0,71.0,-28.0,-21.0,0.36
16,-101.0,-979.0,-7.0,54.0,-28.0,-27.0,0.36
17,-91.0,-989.0,-11.0,32.0,-32.0,-34.0,0.36
18,-90.0,-1008.0,-21.0,18.0,-33.0,-32.0,0.36
19,-80.0,-1028.0,-33.0,15.0,-36.0,-24.0,0.36
20,-90.0,-1015.0,-28.0,24.0,-37.0,-7.0,0.36
21,-100.0,-994.0,-19.0,27.0,-42.0,-1.0,0.36
22,-757.0,-1851.0,-466.0,1439.0,243.0,-805.0,0.36
23,-85.0,-1886.0,-351.0,1953.0,-193.0,-306.0,0.36
24,194.0,-1788.0,-358.0,2237.0,-185.0,-459.0,0.36
25,241.0,-1184.0,-577.0,2412.0,0.0,-508.0,0.36
26,-156.0,-80.0,-1294.0,2251.0,88.0,-272.0,0.36
27,-607.0,122.0,-1327.0,1511.0,-196.0,-85.0,0.36
28,118.0,469.0,-1520.0,771.0,-712.0,-371.0,0.36
29,56.0,23.0,-1679.0,-51.0,-833.0,-64.0,0.36
30,558.0,-210.0,-1610.0,-501.0,-1033.0,305.0,0.36
31,921.0,30.0,-1529.0,-692.0,-813.0,64.0,0.36
32,631.0,-134.0,-1482.0,-1042.0,-310.0,-47.0,0.36
33,308.0,-334.0,-1265.0,-1481.0,300.0,424.0,0.36
34,0.0,-1792.0,-200.0,-2867.0,-713.0,-465.0,0.36
35,-29.0,-1769.0,-147.0,-2717.0,-734.0,-500.0,0.36
36,-25.0,-1711.0,-102.0,-2548.0,-764.0,-527.0,0.36
37,3.0,-1630.0,-79.0,-2388.0,-769.0,-511.0,0.36
38,36.0,-1522.0,-83.0,-2250.0,-726.0,-473.0,0.36
39,138.0,-1432.0,-79.0,-2151.0,-647.0,-399.0,0.36
40,261.0,-1408.0,-85.0,-2071.0,-506.0,-289.0,0.0
41,335.0,-1370.0,-118.0,-1959.0,-293.0,-199.0,0.0
42,368.0,-1266.0,-139.0,-1841.0,-53.0,-142.0,0.0
43,315.0,-1195.0,-147.0,-1772.0,189.0,-123.0,0.0
44,214.0,-1229.0,-139.0,-1724.0,399.0,-134.0,0.0
45,76.0,-1213.0,-112.0,-1637.0,551.0,-142.0,0.0
46,-21.0,-1156.0,-74.0,-1543.0,631.0,-145.0,0.0
47,-118.0,-1107.0,-81.0,-1465.0,668.0,-133.0,0.0
48,-127.0,-1028.0,-80.0,-1399.0,649.0,-72.0,0.0
49,-113.0,-950.0,-102.0,-1345.0,608.0,9.0,0.0
50,-40.0,-886.0,383.0,-456.0,144.0,142.0,0.0
51,-80.0,-815.0,388.0,-335.0,220.0,156.0,0.0
52,-99.0,-847.0,410.0,-272.0,280.0,199.0,0.0
53,-106.0,-924.0,453.0,-200.0,324.0,281.0,0.0
54,-136.0,-1057.0,512.0,-81.0,362.0,344.0,0.0
55,-227.0,-1161.0,578.0,114.0,373.0,396.0,0.0
56,-325.0,-1196.0,641.0,358.0,308.0,447.0,0.0
57,-430.0,-1282.0,725.0,597.0,160.0,436.0,0.0
58,-570.0,-1458.0,821.0,849.0,-69.0,353.0,0.0
59,-716.0,-1679.0,928.0,1176.0,-388.0,241.0,0.0
60,-823.0,-1791.0,1038.0,1586.0,-787.0,175.0,0.0
61,-808.0,-1783.0,1127.0,1980.0,-1233.0,169.0,0.0
62,-736.0,-1929.0,1140.0,2281.0,-1650.0,159.0,0.0
63,-693.0,-1959.0,1007.0,2643.0,-2003.0,181.0,0.0
64,-500.0,-1959.0,715.0,3112.0,-2347.0,329.0,0.0
65,-207.0,1028.0,-122.0,1945.0,-589.0,-1495.0,0.0
66,9.0,-848.0,-45.0,2094.0,-181.0,-231.0,0.0
67,28.0,-777.0,80.0,1907.0,-186.0,-108.0,0.0
68,-65.0,-858.0,55.0,1642.0,-114.0,-34.0,0.0
69,-75.0,-902.0,-13.0,1438.0,-101.0,-16.0,0.0
70,-64.0,-817.0,66.0,1294.0,-147.0,22.0,0.0
71,66.0,-747.0,172.0,1052.0,-159.0,84.0,0.0
72,-85.0,-864.0,116.0,721.0,-78.0,187.0,0.0
73,-112.0,-1019.0,-40.0,509.0,-84.0,201.0,0.0
74,-97.0,-995.0,-52.0,485.0,-85.0,162.0,0.0
75,-69.0,-975.0,-30.0,402.0,-64.0,144.0,0.0
76,-86.0,-981.0,-26.0,384.0,-51.0,147.0,0.0
77,-73.0,-964.0,-16.0,363.0,-50.0,148.0,0.0
78,-75.0,-945.0,0.0,328.0,-46.0,156.0,0.0
79,-85.0,-966.0,-9.0,279.0,-41.0,159.0,0.0
80,-88.0,-978.0,-16.0,248.0,-38.0,159.0,0.0
81,-95.0,-964.0,-1.0,229.0,-36.0,158.0,0.0
82,-110.0,-965.0,7.0,194.0,-34.0,146.0,0.0
83,-120.0,-983.0,-1.0,150.0,-30.0,117.0,0.0
84,-116.0,-1011.0,-27.0,121.0,-32.0,81.0,0.0
85,-115.0,-1002.0,-25.0,122.0,-32.0,52.0,0.0
86,-108.0,-978.0,-8.0,130.0,-33.0,13.0,0.0
87,-94.0,-976.0,17.0,190.0,-57.0,40.0,0.0
88,-89.0,-971.0,20.0,180.0,-55.0,35.0,0.0
89,-89.0,-972.0,21.0,170.0,-55.0,35.0,0.51
90,-89.0,-973.0,20.0,160.0,-53.0,37.0,0.51
91,-92.0,-983.0,22.0,156.0,-51.0,39.0,0.51
92,-91.0,-989.0,18.0,157.0,-53.0,39.0,0.51
93,-98.0,-994.0,18.0,158.0,-52.0,39.0,0.51
94,-96.0,-997.0,18.0,162.0,-53.0,32.0,0.51
95,-85.0,-1007.0,14.0,167.0,-55.0,33.0,0.51
96,-94.0,-1009.0,19.0,178.0,-54.0,43.0,0.51
97,-94.0,-1020.0,14.0,191.0,-55.0,51.0,0.51
98,-77.0,-1036.0,8.0,228.0,-61.0,87.0,0.51
99,-454.0,-1873.0,-135.0,1200.0,57.0,-19.0,0.51
100,260.0,-1643.0,-808.0,5225.0,541.0,-1837.0,0.51
101,242.0,-808.0,-1225.0,5001.0,558.0,-1148.0,0.51
102,1527.0,1259.0,-1865.0,4435.0,517.0,-799.0,0.51
103,1028.0,1455.0,-1170.0,2229.0,1206.0,-206.0,0.51
104,296.0,-496.0,-1837.0,121.0,1891.0,328.0,0.51
105,311.0,-504.0,-1644.0,-51.0,1912.0,556.0,0.51
106,95.0,265.0,-1573.0,-32.0,1953.0,454.0,0.51
107,-454.0,800.0,-1481.0,-531.0,1894.0,138.0,0.51
108,-759.0,333.0,-1464.0,-1369.0,1460.0,76.0,0.51
109,-664.0,150.0,-1346.0,-1919.0,834.0,175.0,0.51
110,103.0,-1227.0,-587.0,-4350.0,242.0,-235.0,0.51
111,-29.0,-1427.0,-485.0,-4406.0,289.0,-448.0,0.51
112,-93.0,-1638.0,-460.0,-4447.0,251.0,-624.0,0.51
113,-75.0,-1800.0,-446.0,-4465.0,166.0,-680.0,0.51
114,-157.0,-1959.0,-258.0,-4691.0,-219.0,-830.0,0.51
115,657.0,-1959.0,945.0,-2394.0,421.0,-1174.0,0.51
116,302.0,-1931.0,1104.0,-2079.0,858.0,-1297.0,0.51
117,-138.0,-1815.0,1246.0,-1788.0,1172.0,-1244.0,0.51
118,-608.0,-910.0,574.0,173.0,321.0,740.0,0.51
119,-583.0,-619.0,322.0,243.0,-21.0,660.0,0.51
120,-499.0,-472.0,122.0,154.0,-414.0,570.0,0.51
121,-131.0,-378.0,31.0,-176.0,-1083.0,363.0,0.51
122,280.0,89.0,-898.0,1482.0,-1354.0,-136.0,0.51
123,531.0,-108.0,-191.0,-1038.0,-144.0,-1985.0,0.51
124,1530.0,-398.0,-1851.0,615.0,-779.0,83.0,0.51
125,-799.0,-1496.0,-1157.0,4037.0,-408.0,2999.0,0.51
126,251.0,-924.0,-61.0,5237.0,-2492.0,174.0,0.61
127,295.0,-365.0,-240.0,4971.0,-1190.0,-242.0,0.61
128,47.0,-197.0,188.0,4392.0,-379.0,-278.0,0.61
129,207.0,-715.0,105.0,3473.0,336.0,-454.0,0.61
130,-329.0,-1093.0,-151.0,2904.0,797.0,-390.0,0.61
131,-91.0,-958.0,-116.0,2680.0,374.0,-424.0,0.61
132,120.0,-850.0,-28.0,2194.0,-398.0,60.0,0.61
133,-83.0,-1022.0,-38.0,130.0,-39.0,-41.0,0.61
134,-80.0,-1009.0,-29.0,159.0,-39.0,-44.0,0.61
135,-64.0,-1008.0,-30.0,181.0,-42.0,-36.0,0.61
136,-58.0,-997.0,-18.0,204.0,-42.0,-15.0,0.61
137,-48.0,-997.0,-19.0,217.0,-44.0,11.0,0.61
138,-56.0,-984.0,-10.0,231.0,-43.0,49.0,0.61
139,-63.0,-969.0,5.0,232.0,-47.0,80.0,0.61
140,-66.0,-981.0,0.0,219.0,-48.0,101.0,0.61
141,-76.0,-991.0,-10.0,213.0,-47.0,118.0,0.61
142,-111.0,-994.0,6.0,213.0,-44.0,67.0,0.61
143,-96.0,-987.0,26.0,113.0,-54.0,1.0,0.61
144,-78.0,-989.0,26.0,109.0,-54.0,0.0,0.61
145,-76.0,-984.0,28.0,108.0,-52.0,14.0,0.61
146,-83.0,-987.0,30.0,109.0,-51.0,28.0,0.61
147,-91.0,-989.0,30.0,110.0,-50.0,38.0,0.61
148,-93.0,-987.0,29.0,114.0,-51.0,48.0,0.61
149,-105.0,-1002.0,27.0,116.0,-52.0,52.0,0.61
150,-98.0,-1003.0,25.0,124.0,-55.0,50.0,0.61
151,-93.0,-1009.0,24.0,134.0,-56.0,54.0,0.61
152,-104.0,-1005.0,29.0,145.0,-57.0,62.0,0.61
153,-101.0,-1002.0,31.0,153.0,-58.0,62.0,0.61
154,-114.0,-1005.0,33.0,169.0,-58.0,61.0,0.61
155,-35.0,-1312.0,-21.0,542.0,-16.0,-136.0,0.61
156,-39.0,-1959.0,-305.0,2950.0,-133.0,-473.0,0.61
157,-188.0,-1959.0,-440.0,3334.0,-34.0,-620.0,0.61
158,-59.0,-1959.0,-419.0,3804.0,-31.0,-675.0,0.61
159,-168.0,-1959.0,-450.0,4252.0,7.0,-688.0,0.61
160,233.0,-1959.0,-505.0,4637.0,-28.0,-819.0,0.61
161,-36.0,-1959.0,-415.0,4971.0,164.0,-1004.0,0.61
162,226.0,-1945.0,-528.0,5111.0,197.0,-995.0,0.61
163,-373.0,-1918.0,-541.0,5120.0,364.0,-723.0,0.61
164,615.0,-1458.0,-1198.0,5041.0,127.0,-250.0,0.61
165,1208.0,805.0,-1733.0,4932.0,293.0,104.0,0.61
166,1585.0,1891.0,-1170.0,3146.0,930.0,205.0,0.61
167,118.0,-882.0,-1845.0,-804.0,2238.0,517.0,0.61
168,132.0,-1435.0,-341.0,-3926.0,-9.0,-684.0,0.61
169,-50.0,-1609.0,-339.0,-4047.0,85.0,-684.0,0.6
170,-69.0,-1816.0,-284.0,-4148.0,69.0,-594.0,0.6
171,20.0,-1947.0,-216.0,-4203.0,38.0,-475.0,0.6
172,87.0,-1959.0,-170.0,-4236.0,54.0,-411.0,0.6
173,36.0,-1909.0,-139.0,-4310.0,86.0,-413.0,0.6
174,-84.0,-1887.0,-135.0,-4491.0,62.0,-447.0,0.6
175,-189.0,-1959.0,-146.0,-4692.0,-56.0,-468.0,0.6
176,-127.0,-1959.0,-127.0,-4775.0,-251.0,-484.0,0.6
177,77.0,-1959.0,-98.0,-4721.0,-417.0,-538.0,0.6
178,157.0,-1959.0,-37.0,-4527.0,-465.0,-661.0,0.6
179,86.0,-1959.0,-16.0,-4268.0,-476.0,-912.0,0.6
180,-313.0,-1561.0,878.0,-1197.0,1150.0,-620.0,0.6
181,-428.0,-1366.0,895.0,-857.0,1104.0,-460.0,0.6
182,-498.0,-1128.0,912.0,-607.0,1000.0,-269.0,0.6
183,-473.0,-1011.0,902.0,-478.0,852.0,-142.0,0.6
184,-446.0,-1021.0,856.0,-408.0,721.0,-127.0,0.6
185,-476.0,-1037.0,703.0,-322.0,598.0,-150.0,0.6
186,-464.0,-943.0,488.0,-205.0,429.0,-89.0,0.6
187,-419.0,-762.0,354.0,-90.0,240.0,39.0,0.6
188,-285.0,-612.0,299.0,-47.0,56.0,148.0,0.6
189,-96.0,-520.0,261.0,-92.0,-100.0,252.0,0.6
190,61.0,-546.0,242.0,-180.0,-178.0,251.0,0.6
191,103.0,-543.0,286.0,-352.0,-131.0,-57.0,0.6
192,-299.0,-1401.0,-756.0,3069.0,482.0,-254.0,0.6
193,-348.0,-737.0,-143.0,3456.0,973.0,-764.0,0.6
194,-390.0,-835.0,-50.0,3182.0,866.0,-1080.0,0.6
195,296.0,-936.0,-88.0,2859.0,369.0,-1083.0,0.6
196,84.0,-788.0,36.0,2719.0,134.0,-538.0,0.6
197,-60.0,-753.0,118.0,2493.0,-191.0,-83.0,0.6
198,54.0,-712.0,140.0,2222.0,-449.0,179.0,0.6
199,245.0,-442.0,399.0,1931.0,-410.0,289.0,0.6
200,108.0,-599.0,368.0,1363.0,-165.0,461.0,0.6
201,-119.0,-1020.0,16.0,868.0,-114.0,637.0,0.6
202,-25.0,-1139.0,-130.0,777.0,-163.0,657.0,0.6
203,-205.0,-894.0,76.0,686.0,-40.0,493.0,0.6
204,-98.0,-961.0,39.0,195.0,-48.0,63.0,0.6
205,-100.0,-973.0,31.0,159.0,-48.0,30.0,0.6
206,-102.0,-981.0,33.0,152.0,-45.0,13.0,0.6
207,-94.0,-987.0,29.0,148.0,-43.0,-3.0,0.6
208,-94.0,-980.0,33.0,148.0,-41.0,-10.0,0.6
209,-81.0,-982.0,31.0,143.0,-42.0,-12.0,0.6
210,-66.0,-975.0,38.0,139.0,-40.0,-2.0,0.6
211,-65.0,-973.0,39.0,137.0,-39.0,22.0,0.77
212,-75.0,-968.0,43.0,136.0,-36.0,49.0,0.77
213,-80.0,-970.0,44.0,131.0,-35.0,71.0,0.77
214,-99.0,-976.0,45.0,123.0,-34.0,91.0,0.77
215,-93.0,-998.0,47.0,107.0,-47.0,10.0,0.77
216,-100.0,-988.0,53.0,112.0,-49.0,23.0,0.77
217,-111.0,-1000.0,50.0,111.0,-50.0,27.0,0.77
218,-124.0,-993.0,55.0,116.0,-52.0,22.0,0.77
219,-122.0,-997.0,55.0,116.0,-59.0,11.0,0.77
220,-107.0,-1003.0,55.0,117.0,-64.0,2.0,0.77
221,-78.0,-980.0,60.0,123.0,-68.0,7.0,0.77
222,-80.0,-1002.0,52.0,123.0,-67.0,31.0,0.77
223,-91.0,-981.0,64.0,130.0,-65.0,51.0,0.77
224,-106.0,-974.0,67.0,131.0,-63.0,58.0,0.77
225,-37.0,-1050.0,47.0,152.0,-45.0,20.0,0.77
226,-131.0,-1363.0,19.0,762.0,-123.0,-110.0,0.77
227,154.0,-1959.0,-387.0,4230.0,178.0,-969.0,0.77
228,356.0,-1959.0,-612.0,4700.0,329.0,-1284.0,0.77
229,445.0,-1959.0,-651.0,5108.0,572.0,-1633.0,0.77
230,48.0,-1951.0,-437.0,5368.0,795.0,-1635.0,0.77
231,-99.0,-1959.0,-380.0,5430.0,863.0,-1397.0,0.77
232,-173.0,-1904.0,-256.0,5384.0,839.0,-881.0,0.77
233,542.0,-1751.0,-812.0,5160.0,698.0,-309.0,0.77
234,736.0,-761.0,-1645.0,4989.0,907.0,-163.0,0.77
235,1830.0,1837.0,-1327.0,4536.0,1135.0,-201.0,0.77
236,953.0,1589.0,-856.0,1742.0,2341.0,-298.0,0.77
237,417.0,-537.0,-1571.0,-879.0,2858.0,-369.0,0.77
238,-437.0,-179.0,-1295.0,-1265.0,2616.0,2.0,0.77
239,96.0,-1554.0,-750.0,-4965.0,-456.0,-612.0,0.77
240,77.0,-1872.0,-557.0,-4938.0,-188.0,-605.0,0.77
241,23.0,-1955.0,-347.0,-4789.0,96.0,-685.0,0.77
242,-189.0,-1833.0,-261.0,-4680.0,369.0,-771.0,0.77
243,-372.0,-1903.0,-356.0,-4755.0,523.0,-720.0,0.77
244,-428.0,-1959.0,-397.0,-4877.0,549.0,-520.0,0.77
245,-233.0,-1959.0,-320.0,-4950.0,494.0,-291.0,0.77
246,-194.0,-1959.0,-208.0,-4987.0,505.0,-172.0,0.77
247,-334.0,-1959.0,-163.0,-5061.0,474.0,-186.0,0.77
248,-423.0,-1959.0,-139.0,-5182.0,281.0,-272.0,0.77
249,-358.0,-1959.0,-107.0,-5252.0,-19.0,-401.0,0.77
250,-103.0,-1959.0,-65.0,-5006.0,-507.0,-795.0,0.77
251,-1076.0,-1036.0,1090.0,-1019.0,2072.0,-625.0,0.77
252,-1122.0,-1011.0,1129.0,-1021.0,1707.0,-275.0,0.77
253,-1028.0,-1413.0,1113.0,-947.0,1323.0,99.0,0.77
254,-822.0,-1489.0,1068.0,-588.0,978.0,324.0,0.77
255,-690.0,-1187.0,940.0,-161.0,716.0,387.0,0.86
256,-682.0,-851.0,758.0,86.0,490.0,379.0,0.86
257,-753.0,-654.0,577.0,127.0,242.0,412.0,0.86
258,-625.0,-728.0,420.0,67.0,-92.0,602.0,0.86
259,-151.0,-1507.0,-90.0,2871.0,-1855.0,170.0,0.86
260,29.0,752.0,17.0,1995.0,-864.0,-1030.0,0.86
261,1709.0,-189.0,-1716.0,-3625.0,-2463.0,-1238.0,0.86
262,1428.0,-1179.0,-1378.0,2312.0,-1519.0,1611.0,0.86
263,-1692.0,-747.0,102.0,6444.0,-1482.0,3598.0,0.86
264,-1222.0,523.0,1096.0,5827.0,-3414.0,1162.0,0.86
265,960.0,-172.0,1454.0,3658.0,-3704.0,-1115.0,0.86
266,715.0,-1348.0,-176.0,2214.0,-1206.0,-737.0,0.86
267,41.0,-1541.0,-1021.0,2150.0,410.0,-264.0,0.86
268,-494.0,-1042.0,-389.0,2581.0,1264.0,-479.0,0.86
269,-601.0,-843.0,-128.0,2605.0,1226.0,-889.0,0.86
270,120.0,-712.0,-136.0,2357.0,-224.0,-608.0,0.86
271,-75.0,-960.0,33.0,245.0,-52.0,-18.0,0.86
272,-81.0,-958.0,35.0,222.0,-46.0,-5.0,0.86
273,-85.0,-938.0,46.0,199.0,-46.0,8.0,0.86
274,-92.0,-946.0,42.0,168.0,-47.0,21.0,0.86
275,-96.0,-950.0,44.0,147.0,-49.0,26.0,0.86
276,-95.0,-948.0,44.0,129.0,-50.0,29.0,0.86
277,-81.0,-958.0,41.0,116.0,-50.0,38.0,0.86
278,-93.0,-960.0,41.0,106.0,-46.0,54.0,0.86
279,-99.0,-970.0,35.0,98.0,-43.0,62.0,0.86
280,-97.0,-989.0,27.0,97.0,-41.0,64.0,0.86
281,-82.0,-982.0,32.0,106.0,-41.0,70.0,0.86
282,-109.0,-977.0,39.0,111.0,-36.0,89.0,0.86
283,-125.0,-1067.0,48.0,270.0,-22.0,27.0,0.86
284,-151.0,-1001.0,81.0,304.0,-22.0,7.0,0.86
285,-113.0,-1110.0,43.0,304.0,-29.0,-9.0,0.86
286,-123.0,-1067.0,55.0,348.0,-28.0,-7.0,0.86
287,-134.0,-1180.0,32.0,365.0,-31.0,-15.0,0.86
288,-138.0,-1254.0,8.0,435.0,-43.0,5.0,0.86
289,-81.0,-1127.0,57.0,533.0,-69.0,74.0,0.86
290,-114.0,-1181.0,63.0,574.0,-92.0,178.0,0.86
291,-163.0,-1610.0,-68.0,641.0,-136.0,269.0,0.86
292,-120.0,-1505.0,-25.0,885.0,-137.0,198.0,0.86
293,-43.0,-1446.0,13.0,1070.0,-120.0,118.0,0.86
294,-207.0,-1607.0,-21.0,1409.0,-91.0,-19.0,0.86
295,395.0,-1847.0,-400.0,4696.0,860.0,-1750.0,0.86
296,-130.0,-1659.0,-269.0,4717.0,1139.0,-1824.0,0.86
297,371.0,-1423.0,-619.0,4579.0,1068.0,-1911.0,0.7
298,805.0,-551.0,-1177.0,4370.0,1303.0,-2033.0,0.7
299,863.0,1907.0,-1443.0,3738.0,1966.0,-1611.0,0.7
300,502.0,1272.0,-920.0,1168.0,2650.0,-494.0,0.7
301,-279.0,-629.0,-1268.0,-532.0,2931.0,210.0,0.7
302,-691.0,-790.0,-1097.0,-702.0,2653.0,238.0,0.7
303,-806.0,-375.0,-968.0,-530.0,2044.0,-67.0,0.7
304,-406.0,18.0,-1007.0,-1993.0,-1230.0,-696.0,0.7
305,209.0,-1958.0,-306.0,-4285.0,376.0,-186.0,0.7
306,213.0,-1959.0,-158.0,-4232.0,523.0,-305.0,0.7
307,126.0,-1959.0,-13.0,-4151.0,615.0,-377.0,0.7
308,116.0,-1959.0,116.0,-4072.0,591.0,-311.0,0.7
309,170.0,-1959.0,225.0,-4047.0,511.0,-257.0,0.7
310,165.0,-1959.0,279.0,-4085.0,429.0,-362.0,0.7
311,-21.0,-1959.0,322.0,-4076.0,322.0,-552.0,0.7
312,-268.0,-1959.0,344.0,-4012.0,97.0,-740.0,0.7
313,-380.0,-1959.0,334.0,-3927.0,-270.0,-880.0,0.7
314,-365.0,-1959.0,315.0,-3782.0,-687.0,-954.0,0.7
315,-262.0,-1959.0,293.0,-3587.0,-1067.0,-1007.0,0.7
316,-25.0,-1846.0,270.0,-3230.0,-1513.0,-1094.0,0.7
317,-293.0,-841.0,262.0,-906.0,190.0,-82.0,0.7
318,-196.0,-921.0,225.0,-875.0,81.0,9.0,0.7
319,-95.0,-961.0,235.0,-774.0,17.0,83.0,0.7
320,-14.0,-915.0,268.0,-636.0,0.0,74.0,0.7
321,-7.0,-859.0,299.0,-520.0,23.0,18.0,0.7
322,-63.0,-803.0,329.0,-441.0,49.0,-20.0,0.7
323,-115.0,-816.0,331.0,-394.0,43.0,-6.0,0.7
324,-118.0,-834.0,314.0,-332.0,11.0,71.0,0.7
325,-54.0,-809.0,304.0,-256.0,-28.0,165.0,0.7
326,21.0,-811.0,287.0,-192.0,-34.0,215.0,0.7
327,61.0,-818.0,278.0,-131.0,2.0,222.0,0.7
328,-13.0,-807.0,332.0,-61.0,103.0,303.0,0.7
329,-337.0,-1959.0,492.0,2616.0,-1001.0,558.0,0.7
330,-26.0,-931.0,-1053.0,2399.0,-795.0,307.0,0.7
331,657.0,83.0,-1402.0,1752.0,-651.0,-301.0,0.7
332,1409.0,-491.0,-1958.0,-1488.0,-768.0,673.0,0.7
333,13.0,-1405.0,-247.0,4064.0,-437.0,2384.0,0.7
334,-1912.0,-762.0,79.0,5798.0,-849.0,2348.0,0.7
335,-585.0,156.0,679.0,5284.0,-2234.0,332.0,0.7
336,454.0,-378.0,283.0,4044.0,-1988.0,-652.0,0.7
337,-116.0,-1019.0,-20.0,186.0,-10.0,128.0,0.7
338,-97.0,-1000.0,-9.0,184.0,-14.0,66.0,0.7
339,-114.0,-968.0,5.0,128.0,-20.0,-50.0,0.7
340,-80.0,-990.0,-4.0,108.0,-23.0,-91.0,0.7
341,-45.0,-990.0,-5.0,100.0,-26.0,-97.0,0.64
342,-30.0,-972.0,3.0,97.0,-27.0,-67.0,0.64
343,-29.0,-978.0,0.0,87.0,-26.0,-24.0,0.64
344,-45.0,-986.0,-3.0,83.0,-24.0,21.0,0.64
345,-58.0,-997.0,-5.0,81.0,-25.0,50.0,0.64
346,-66.0,-1011.0,-11.0,81.0,-26.0,65.0,0.64
347,-89.0,-1021.0,-10.0,88.0,-26.0,68.0,0.64
348,-94.0,-1023.0,-14.0,97.0,-30.0,51.0,0.64
349,-97.0,-1024.0,-15.0,106.0,-34.0,31.0,0.64
350,-69.0,-973.0,7.0,117.0,-44.0,10.0,0.64
351,-80.0,-980.0,18.0,101.0,-48.0,90.0,0.64
352,-78.0,-960.0,25.0,100.0,-48.0,100.0,0.64
353,-110.0,-958.0,27.0,95.0,-43.0,106.0,0.64
354,-123.0,-959.0,32.0,83.0,-42.0,89.0,0.64
355,-116.0,-966.0,31.0,65.0,-43.0,57.0,0.64
356,-102.0,-965.0,31.0,47.0,-44.0,33.0,0.64