sequence,AccelerometerX,AccelerometerY,AccelerometerZ,GyroscopeX,GyroscopeY,GyroscopeZ
0,31.0,-1280.0,203.0,-1677.0,23.0,589.0
1,26.0,-1246.0,228.0,-1583.0,4.0,569.0
2,44.0,-1156.0,272.0,-1384.0,-45.0,601.0
3,-70.0,-1207.0,470.0,1520.0,757.0,-58.0
4,-126.0,-1243.0,427.0,1616.0,745.0,-4.0
5,-154.0,-1286.0,374.0,1732.0,691.0,71.0
6,-147.0,-1346.0,326.0,1885.0,634.0,206.0
7,-179.0,-1282.0,287.0,2065.0,599.0,358.0
8,-207.0,-1212.0,237.0,2186.0,545.0,489.0
9,-228.0,-1170.0,160.0,2227.0,471.0,555.0
10,-284.0,-1219.0,71.0,2224.0,374.0,543.0
11,-30.0,656.0,-1797.0,1994.0,2059.0,-3315.0
12,-16.0,-892.0,102.0,83.0,-49.0,91.0
13,-26.0,-886.0,94.0,12.0,-53.0,42.0
14,-43.0,-975.0,60.0,-33.0,-68.0,6.0
15,-93.0,-1073.0,8.0,-39.0,-62.0,-89.0
16,22.0,-974.0,56.0,3.0,-65.0,-214.0
17,130.0,-961.0,49.0,-10.0,-67.0,-212.0
18,127.0,-987.0,20.0,-24.0,-55.0,-93.0
19,92.0,-968.0,40.0,-14.0,-43.0,25.0
20,82.0,-943.0,57.0,-22.0,-37.0,110.0
21,36.0,-973.0,53.0,-53.0,-31.0,177.0
22,17.0,-1006.0,24.0,-64.0,-32.0,209.0
23,-14.0,-994.0,43.0,-52.0,-42.0,207.0
24,-14.0,-982.0,41.0,-24.0,-41.0,53.0
25,0.0,-995.0,23.0,-31.0,-47.0,40.0
26,2.0,-980.0,37.0,-24.0,-45.0,35.0
27,2.0,-999.0,26.0,-29.0,-46.0,35.0
28,-3.0,-1014.0,14.0,-22.0,-44.0,35.0
29,-10.0,-1016.0,15.0,-1.0,-42.0,24.0
30,-16.0,-1031.0,6.0,22.0,-42.0,4.0
31,-18.0,-1027.0,8.0,53.0,-42.0,-22.0
32,-9.0,-1010.0,14.0,84.0,-42.0,-52.0
33,-3.0,-983.0,31.0,105.0,-42.0,-70.0
34,7.0,-971.0,41.0,108.0,-44.0,-75.0
35,4.0,-1000.0,31.0,100.0,-44.0,-61.0
36,16.0,-972.0,51.0,149.0,-47.0,-155.0
37,46.0,-970.0,62.0,95.0,-32.0,-111.0
38,47.0,-964.0,71.0,78.0,-26.0,-89.0
39,52.0,-966.0,67.0,63.0,-22.0,-72.0
40,42.0,-978.0,64.0,48.0,-19.0,-50.0
41,40.0,-981.0,59.0,40.0,-17.0,-35.0
42,38.0,-990.0,57.0,35.0,-15.0,-23.0
43,37.0,-1014.0,49.0,31.0,-14.0,-16.0
44,39.0,-1038.0,36.0,43.0,-9.0,-22.0
45,15.0,-1024.0,43.0,66.0,2.0,-41.0
46,33.0,-1024.0,42.0,83.0,5.0,-63.0
47,29.0,-1021.0,49.0,98.0,12.0,-78.0
48,40.0,-1030.0,44.0,108.0,16.0,-86.0
49,37.0,-1021.0,55.0,114.0,22.0,-89.0
50,-10.0,-1140.0,7.0,178.0,20.0,-62.0
51,-443.0,-649.0,-1375.0,-481.0,-889.0,337.0
52,-178.0,-622.0,-1385.0,-671.0,-1072.0,301.0
53,-12.0,-597.0,-1339.0,-908.0,-1125.0,223.0
54,95.0,-691.0,-1277.0,-1170.0,-1098.0,281.0
55,165.0,-854.0,-1192.0,-1390.0,-1017.0,381.0
56,191.0,-953.0,-1090.0,-1525.0,-901.0,442.0
57,183.0,-976.0,-976.0,-1616.0,-783.0,500.0
58,151.0,-1019.0,-860.0,-1713.0,-686.0,574.0
59,126.0,-1034.0,-743.0,-1816.0,-624.0,632.0
60,100.0,-1065.0,-635.0,-1948.0,-591.0,653.0
61,83.0,-1156.0,-535.0,-2091.0,-587.0,655.0
62,114.0,-1362.0,-338.0,-2214.0,-635.0,677.0
63,181.0,-1183.0,272.0,-1532.0,-339.0,406.0
64,194.0,-1119.0,294.0,-1400.0,-317.0,390.0
65,204.0,-1038.0,317.0,-1295.0,-305.0,363.0
66,192.0,-986.0,346.0,-1233.0,-295.0,300.0
67,145.0,-992.0,386.0,-1184.0,-287.0,201.0
68,93.0,-1012.0,433.0,-1096.0,-289.0,125.0
69,44.0,-978.0,472.0,-961.0,-301.0,111.0
70,32.0,-910.0,501.0,-825.0,-325.0,152.0
71,48.0,-878.0,512.0,-728.0,-347.0,186.0
72,123.0,-942.0,535.0,-544.0,-383.0,118.0
73,179.0,-921.0,596.0,-273.0,-391.0,11.0
74,-1352.0,-1231.0,-1860.0,596.0,-1028.0,-234.0
75,847.0,-705.0,-582.0,4737.0,-947.0,-1492.0
76,1473.0,223.0,1248.0,5646.0,174.0,-1266.0
77,243.0,207.0,1241.0,3924.0,970.0,-244.0
78,-941.0,-905.0,402.0,2353.0,1055.0,-95.0
79,230.0,-1200.0,-193.0,1933.0,-104.0,-331.0
80,444.0,-1022.0,-159.0,2028.0,-337.0,21.0
81,38.0,-915.0,27.0,2003.0,-166.0,396.0
82,-176.0,-737.0,292.0,1770.0,-22.0,324.0
83,-94.0,-809.0,208.0,887.0,-59.0,-149.0
84,0.0,-952.0,114.0,143.0,-21.0,106.0
85,-15.0,-970.0,100.0,93.0,-19.0,81.0
86,12.0,-952.0,98.0,62.0,-24.0,46.0
87,10.0,-967.0,94.0,31.0,-22.0,33.0
88,27.0,-980.0,85.0,12.0,-25.0,25.0
89,43.0,-983.0,81.0,2.0,-25.0,29.0
90,39.0,-979.0,84.0,-9.0,-17.0,49.0
91,39.0,-974.0,81.0,-24.0,-13.0,72.0
92,38.0,-978.0,78.0,-36.0,-10.0,95.0
93,25.0,-976.0,78.0,-48.0,-5.0,116.0
94,20.0,-979.0,77.0,-59.0,-4.0,132.0
95,7.0,-972.0,81.0,-69.0,-6.0,142.0
96,1.0,-973.0,76.0,-81.0,-10.0,142.0
97,3.0,-974.0,76.0,-92.0,-16.0,137.0
98,0.0,-984.0,72.0,-103.0,-20.0,133.0
99,-4.0,-1014.0,52.0,-97.0,-20.0,109.0
100,-12.0,-1045.0,30.0,82.0,-31.0,-11.0
101,-6.0,-1046.0,36.0,126.0,-28.0,-37.0
102,-7.0,-1031.0,46.0,161.0,-22.0,-66.0
103,-8.0,-1017.0,54.0,185.0,-19.0,-90.0
104,6.0,-1015.0,58.0,196.0,-19.0,-110.0
105,0.0,-1006.0,65.0,206.0,-14.0,-120.0
106,3.0,-994.0,69.0,207.0,-14.0,-127.0
107,9.0,-1004.0,66.0,206.0,-15.0,-129.0
108,-1.0,-1004.0,65.0,212.0,-12.0,-133.0
109,9.0,-1016.0,62.0,220.0,-13.0,-143.0
110,0.0,-1012.0,70.0,232.0,-13.0,-152.0
111,0.0,-1019.0,69.0,239.0,-17.0,-166.0
112,2.0,-1037.0,67.0,252.0,-21.0,-180.0
113,2.0,-1029.0,68.0,274.0,-26.0,-191.0
114,6.0,-1023.0,76.0,294.0,-30.0,-203.0
115,25.0,-1023.0,83.0,324.0,-43.0,-174.0
116,213.0,-1959.0,-81.0,2125.0,20.0,222.0
117,273.0,-1959.0,-240.0,2502.0,54.0,293.0
118,102.0,-1959.0,-259.0,2866.0,108.0,317.0
119,18.0,-1925.0,-202.0,3259.0,75.0,460.0
120,166.0,-1959.0,-224.0,3582.0,-27.0,630.0
121,-143.0,-1959.0,-217.0,3935.0,-19.0,785.0
122,-119.0,-1878.0,-253.0,4195.0,-187.0,1091.0
123,-1840.0,1002.0,-1246.0,2827.0,-1004.0,750.0
124,-13.0,-697.0,-718.0,-2679.0,713.0,-328.0
125,-87.0,-834.0,-598.0,-2864.0,841.0,-189.0
126,-111.0,-941.0,-491.0,-3015.0,917.0,-28.0
127,-160.0,-1061.0,-411.0,-3165.0,976.0,87.0
128,-296.0,-1171.0,-339.0,-3317.0,1004.0,126.0
129,-425.0,-1295.0,-254.0,-3468.0,950.0,132.0
130,-504.0,-1415.0,-161.0,-3597.0,818.0,112.0
131,-509.0,-1478.0,-87.0,-3693.0,651.0,77.0
132,-460.0,-1505.0,-50.0,-3786.0,501.0,59.0
133,-381.0,-1552.0,-32.0,-3892.0,406.0,82.0
134,-301.0,-1632.0,-24.0,-3992.0,383.0,130.0
135,-259.0,-1732.0,-10.0,-4048.0,426.0,217.0
136,-293.0,-1807.0,21.0,-4045.0,513.0,353.0
137,-379.0,-1826.0,62.0,-3993.0,592.0,528.0
138,-431.0,-1794.0,90.0,-3929.0,622.0,728.0
139,-511.0,-1801.0,148.0,-3865.0,556.0,1013.0
140,574.0,-1705.0,1197.0,-1931.0,-1800.0,825.0
141,840.0,-1698.0,1329.0,-1572.0,-1680.0,735.0
142,975.0,-1576.0,1467.0,-1184.0,-1457.0,544.0
143,979.0,-1456.0,1563.0,-818.0,-1195.0,297.0
144,878.0,-1444.0,1598.0,-478.0,-953.0,52.0
145,759.0,-1435.0,1570.0,-121.0,-760.0,-164.0
146,694.0,-1349.0,1473.0,238.0,-611.0,-341.0
147,655.0,-1309.0,1365.0,548.0,-474.0,-470.0
148,634.0,-1275.0,1279.0,809.0,-328.0,-594.0
149,823.0,-1356.0,1092.0,1186.0,144.0,-965.0
150,800.0,-1410.0,910.0,1647.0,928.0,-987.0
151,548.0,-877.0,0.0,2430.0,-247.0,-362.0
152,95.0,-931.0,10.0,2257.0,-123.0,155.0
153,-108.0,-955.0,14.0,2019.0,-19.0,213.0
154,-75.0,-806.0,109.0,1812.0,79.0,-16.0
155,-17.0,-818.0,79.0,1610.0,81.0,-147.0
156,-57.0,-878.0,79.0,1494.0,26.0,-176.0
157,-108.0,-873.0,137.0,1421.0,-53.0,-248.0
158,-43.0,-784.0,224.0,1270.0,-97.0,-379.0
159,39.0,-782.0,260.0,986.0,-74.0,-461.0
160,56.0,-919.0,132.0,441.0,-75.0,-237.0
161,74.0,-946.0,111.0,105.0,-41.0,-134.0
162,88.0,-949.0,108.0,68.0,-37.0,-113.0
163,97.0,-974.0,95.0,32.0,-35.0,-73.0
164,88.0,-989.0,88.0,14.0,-31.0,-31.0
165,86.0,-985.0,91.0,7.0,-27.0,3.0
166,80.0,-980.0,91.0,-2.0,-23.0,33.0
167,63.0,-1002.0,79.0,-8.0,-21.0,54.0
168,52.0,-991.0,84.0,1.0,-20.0,53.0
169,44.0,-990.0,85.0,8.0,-23.0,42.0
170,38.0,-998.0,78.0,16.0,-27.0,25.0
171,33.0,-1002.0,75.0,30.0,-30.0,0.0
172,58.0,-976.0,88.0,64.0,-40.0,-49.0
173,64.0,-1005.0,96.0,112.0,-38.0,-33.0
174,41.0,-1035.0,107.0,269.0,-10.0,-154.0
175,27.0,-1050.0,106.0,267.0,-14.0,-178.0
176,32.0,-1084.0,104.0,269.0,-19.0,-208.0
177,55.0,-1137.0,78.0,297.0,-21.0,-242.0
178,-8.0,-1060.0,127.0,359.0,-14.0,-280.0
179,61.0,-1166.0,84.0,367.0,-46.0,-337.0
180,105.0,-1152.0,101.0,442.0,-50.0,-361.0
181,24.0,-1065.0,150.0,509.0,-43.0,-332.0
182,-51.0,-1156.0,147.0,515.0,-71.0,-358.0
183,47.0,-1362.0,97.0,526.0,-132.0,-437.0
184,240.0,-1773.0,37.0,1326.0,-52.0,-611.0
185,223.0,-1827.0,55.0,1557.0,-20.0,-475.0
186,258.0,-1959.0,-38.0,1781.0,18.0,-444.0
187,176.0,-1959.0,-37.0,2157.0,90.0,-389.0
188,154.0,-1959.0,-81.0,2463.0,75.0,-287.0
189,-19.0,-1959.0,-39.0,2789.0,41.0,-161.0
190,48.0,-1959.0,-167.0,3108.0,-78.0,38.0
191,-184.0,-1959.0,-126.0,3501.0,-121.0,182.0
192,-188.0,-1928.0,-150.0,3748.0,-279.0,277.0
193,-191.0,-1776.0,-208.0,4031.0,-376.0,-288.0
194,697.0,-198.0,-670.0,-621.0,-314.0,597.0
195,-8.0,-1249.0,-80.0,-3107.0,873.0,434.0
196,-154.0,-1287.0,-25.0,-3110.0,730.0,308.0
197,-274.0,-1303.0,2.0,-3138.0,503.0,196.0
198,-334.0,-1284.0,16.0,-3209.0,224.0,101.0
199,-327.0,-1315.0,19.0,-3332.0,-60.0,37.0
200,-266.0,-1394.0,25.0,-3464.0,-299.0,23.0
201,-173.0,-1460.0,24.0,-3567.0,-457.0,55.0
202,-74.0,-1533.0,13.0,-3644.0,-524.0,132.0
203,4.0,-1634.0,6.0,-3678.0,-503.0,235.0
204,26.0,-1717.0,16.0,-3652.0,-407.0,352.0
205,0.0,-1737.0,40.0,-3570.0,-273.0,502.0
206,-131.0,-1732.0,94.0,-3393.0,-60.0,850.0
207,-296.0,-1294.0,664.0,-2020.0,-1345.0,884.0
208,-229.0,-1267.0,756.0,-1903.0,-1531.0,891.0
209,-74.0,-1321.0,857.0,-1764.0,-1702.0,887.0
210,207.0,-1373.0,962.0,-1552.0,-1831.0,863.0
211,581.0,-1374.0,1069.0,-1271.0,-1861.0,793.0
212,901.0,-1379.0,1204.0,-966.0,-1725.0,620.0
213,1093.0,-1370.0,1346.0,-642.0,-1439.0,355.0
214,1172.0,-1327.0,1440.0,-297.0,-1066.0,75.0
215,1150.0,-1349.0,1477.0,41.0,-659.0,-151.0
216,1101.0,-1363.0,1441.0,393.0,-266.0,-288.0
217,1111.0,-1357.0,1360.0,749.0,95.0,-352.0
218,1096.0,-1264.0,1200.0,1320.0,830.0,-486.0
219,694.0,-1191.0,-222.0,2705.0,-458.0,-159.0
220,68.0,-962.0,49.0,346.0,-32.0,-238.0
221,93.0,-970.0,50.0,329.0,-47.0,-178.0
222,114.0,-958.0,69.0,309.0,-52.0,-97.0
223,90.0,-968.0,79.0,265.0,-45.0,-10.0
224,75.0,-964.0,89.0,214.0,-43.0,59.0
225,54.0,-985.0,74.0,165.0,-36.0,104.0
226,20.0,-973.0,76.0,137.0,-26.0,111.0
227,28.0,-971.0,73.0,112.0,-26.0,96.0
228,3.0,-983.0,74.0,87.0,-23.0,76.0
229,0.0,-1019.0,53.0,71.0,-30.0,41.0
230,39.0,-984.0,70.0,53.0,-53.0,-62.0
231,39.0,-991.0,66.0,50.0,-52.0,-63.0
232,40.0,-990.0,66.0,51.0,-53.0,-61.0
233,41.0,-1002.0,64.0,51.0,-53.0,-59.0
234,35.0,-1028.0,52.0,57.0,-52.0,-59.0
235,32.0,-1029.0,49.0,77.0,-52.0,-67.0
236,34.0,-1020.0,58.0,98.0,-52.0,-78.0
237,44.0,-995.0,67.0,141.0,-44.0,-108.0
238,47.0,-1043.0,76.0,240.0,-12.0,-170.0
239,39.0,-1046.0,79.0,254.0,-10.0,-182.0
240,5.0,-1047.0,97.0,266.0,-9.0,-202.0
241,59.0,-1046.0,93.0,273.0,-27.0,-217.0
242,48.0,-1121.0,56.0,290.0,-28.0,-215.0
243,31.0,-1088.0,86.0,344.0,-37.0,-214.0
244,30.0,-1103.0,89.0,381.0,-60.0,-204.0
245,109.0,-1212.0,45.0,414.0,-69.0,-246.0
246,-23.0,-1079.0,114.0,513.0,-49.0,-267.0
247,34.0,-1215.0,77.0,528.0,-83.0,-279.0
248,-26.0,-1301.0,112.0,603.0,-101.0,-276.0
249,76.0,-1302.0,52.0,991.0,-43.0,-382.0
250,-616.0,-1959.0,-529.0,5037.0,-322.0,1376.0
251,-205.0,-1941.0,-547.0,5296.0,-716.0,1590.0
252,-29.0,-1940.0,-546.0,5330.0,-847.0,1055.0
253,130.0,-1959.0,-559.0,5388.0,-805.0,611.0
254,-665.0,-1905.0,-920.0,5586.0,-812.0,936.0
255,-37.0,532.0,-694.0,5844.0,-1137.0,803.0
256,-682.0,1958.0,-1390.0,4956.0,-1011.0,539.0
257,14.0,1346.0,26.0,2076.0,-1472.0,723.0
258,521.0,-289.0,-939.0,275.0,-1542.0,633.0
259,-32.0,-321.0,-963.0,-461.0,-1114.0,-75.0
260,-116.0,-983.0,-616.0,-745.0,-1118.0,-888.0
261,38.0,-244.0,-572.0,-430.0,-1236.0,-1135.0
262,240.0,304.0,-615.0,-446.0,-1213.0,-783.0
263,442.0,166.0,-657.0,-804.0,-1059.0,-253.0
264,631.0,23.0,-698.0,-1165.0,-766.0,6.0
265,667.0,-199.0,-602.0,-1752.0,144.0,-280.0
266,-426.0,-1284.0,-59.0,-3772.0,-80.0,4.0
267,-397.0,-1363.0,-44.0,-3857.0,-364.0,-69.0
268,-269.0,-1400.0,-25.0,-3923.0,-606.0,-51.0
269,-95.0,-1422.0,-10.0,-4007.0,-736.0,5.0
270,46.0,-1509.0,5.0,-4117.0,-729.0,87.0
271,113.0,-1685.0,41.0,-4199.0,-614.0,232.0
272,123.0,-1758.0,87.0,-4202.0,-441.0,410.0
273,125.0,-1783.0,116.0,-4190.0,-249.0,609.0
274,62.0,-1905.0,160.0,-4190.0,-56.0,795.0
275,-1.0,-1930.0,216.0,-4160.0,97.0,896.0
276,34.0,-1959.0,337.0,-4028.0,398.0,870.0
277,429.0,-1494.0,1668.0,-867.0,-1040.0,-357.0
278,-845.0,-1323.0,-1508.0,3091.0,2036.0,-987.0
279,880.0,-623.0,-293.0,4914.0,1523.0,-1369.0
280,1497.0,24.0,553.0,4824.0,2046.0,-465.0
281,-662.0,-598.0,767.0,3847.0,2808.0,775.0
282,-1069.0,-1267.0,309.0,3136.0,1629.0,495.0
283,184.0,-1084.0,-141.0,2946.0,259.0,-10.0
284,322.0,-951.0,-47.0,2884.0,-167.0,261.0
285,-43.0,-996.0,36.0,2697.0,-214.0,534.0
286,-86.0,-1002.0,102.0,2417.0,-124.0,357.0
287,-22.0,-874.0,156.0,2179.0,1.0,42.0
288,10.0,-851.0,194.0,1917.0,43.0,-132.0
289,-37.0,-600.0,293.0,1402.0,-149.0,-268.0
290,138.0,-960.0,125.0,287.0,-48.0,-39.0
291,108.0,-972.0,123.0,211.0,-39.0,-27.0
292,108.0,-984.0,119.0,192.0,-36.0,-41.0
293,112.0,-979.0,122.0,181.0,-35.0,-60.0
294,120.0,-968.0,126.0,168.0,-34.0,-72.0
295,134.0,-956.0,130.0,150.0,-33.0,-74.0
296,147.0,-954.0,129.0,126.0,-33.0,-61.0
297,139.0,-955.0,128.0,104.0,-30.0,-41.0
298,138.0,-947.0,133.0,86.0,-29.0,-27.0
299,136.0,-950.0,128.0,63.0,-28.0,-16.0
300,145.0,-925.0,135.0,-61.0,-34.0,42.0
301,127.0,-993.0,107.0,63.0,-27.0,0.0
302,115.0,-1005.0,102.0,69.0,-25.0,1.0
303,132.0,-1012.0,96.0,81.0,-26.0,-3.0
304,133.0,-1008.0,98.0,99.0,-24.0,6.0
305,111.0,-1021.0,95.0,115.0,-22.0,16.0
306,106.0,-1026.0,95.0,139.0,-24.0,7.0
307,102.0,-1042.0,95.0,168.0,-26.0,-10.0
308,84.0,-1033.0,102.0,195.0,-25.0,-33.0
309,98.0,-1050.0,99.0,213.0,-31.0,-63.0
310,125.0,-1151.0,85.0,296.0,-39.0,-225.0
311,343.0,-1943.0,-176.0,2490.0,279.0,-286.0
312,168.0,-1950.0,-115.0,2830.0,305.0,-150.0
313,83.0,-1959.0,-198.0,3141.0,258.0,-96.0
314,-33.0,-1959.0,-190.0,3516.0,195.0,14.0
315,-97.0,-1959.0,-272.0,3936.0,57.0,286.0
316,-72.0,-1959.0,-305.0,4207.0,-130.0,384.0
317,-22.0,-1959.0,-461.0,4324.0,-178.0,-156.0
318,-300.0,-1768.0,-376.0,4533.0,-143.0,-481.0
319,-100.0,-1888.0,-389.0,4572.0,-310.0,-534.0
320,103.0,-1522.0,-433.0,4740.0,-374.0,-655.0
321,-355.0,-1086.0,-378.0,4774.0,-298.0,-732.0
322,-365.0,1416.0,-431.0,3049.0,-559.0,-99.0
323,-116.0,-1825.0,328.0,-3854.0,-48.0,1515.0
324,-95.0,-1826.0,389.0,-3800.0,56.0,1557.0
325,-127.0,-1820.0,465.0,-3724.0,172.0,1580.0
326,-198.0,-1838.0,575.0,-3612.0,249.0,1641.0
327,-257.0,-1854.0,710.0,-3436.0,228.0,1765.0
328,-220.0,-1832.0,866.0,-3207.0,74.0,1915.0
329,-93.0,-1808.0,1044.0,-2990.0,-162.0,1931.0
330,-30.0,-1822.0,1242.0,-2816.0,-394.0,1637.0
331,-93.0,-1854.0,1464.0,-2610.0,-630.0,1131.0
332,-202.0,-1818.0,1715.0,-2280.0,-911.0,745.0
333,-175.0,-1710.0,1918.0,-1852.0,-1240.0,656.0
334,-859.0,-441.0,-1635.0,1383.0,2441.0,-1157.0
335,-26.0,-902.0,76.0,845.0,20.0,-174.0
336,-100.0,-892.0,114.0,787.0,19.0,-309.0
337,-46.0,-915.0,111.0,724.0,0.0,-486.0
338,123.0,-885.0,117.0,657.0,-63.0,-535.0
339,128.0,-938.0,71.0,565.0,-62.0,-481.0
340,67.0,-923.0,83.0,522.0,-36.0,-465.0
341,165.0,-882.0,91.0,485.0,-61.0,-448.0
342,136.0,-905.0,101.0,426.0,-55.0,-377.0
343,171.0,-937.0,94.0,362.0,-59.0,-306.0
344,195.0,-972.0,75.0,310.0,-56.0,-212.0
345,197.0,-969.0,77.0,280.0,-46.0,-103.0
346,131.0,-963.0,93.0,214.0,-28.0,47.0
347,116.0,-978.0,92.0,41.0,-44.0,-15.0
348,119.0,-985.0,92.0,38.0,-44.0,-11.0
349,118.0,-986.0,91.0,36.0,-42.0,-5.0
350,126.0,-982.0,90.0,35.0,-43.0,3.0
351,125.0,-981.0,93.0,34.0,-42.0,16.0
352,117.0,-987.0,91.0,31.0,-40.0,29.0
353,107.0,-994.0,90.0,29.0,-37.0,31.0
354,104.0,-996.0,88.0,31.0,-36.0,26.0
355,119.0,-989.0,90.0,36.0,-37.0,20.0
356,108.0,-1003.0,86.0,37.0,-34.0,22.0
357,103.0,-1008.0,85.0,43.0,-32.0,18.0
358,127.0,-999.0,83.0,51.0,-33.0,10.0
359,112.0,-1001.0,89.0,55.0,-23.0,19.0
360,120.0,-1010.0,81.0,55.0,-22.0,26.0
361,98.0,-990.0,94.0,58.0,-15.0,25.0
362,98.0,-976.0,96.0,60.0,-15.0,-5.0
363,92.0,-1055.0,105.0,340.0,-62.0,-158.0
364,83.0,-1042.0,108.0,363.0,-68.0,-198.0
365,122.0,-1122.0,98.0,371.0,-74.0,-261.0
366,140.0,-1117.0,100.0,419.0,-67.0,-300.0
367,130.0,-1118.0,105.0,473.0,-56.0,-328.0
368,196.0,-1213.0,96.0,518.0,-58.0,-347.0
369,136.0,-1188.0,97.0,602.0,-25.0,-355.0
370,187.0,-1229.0,85.0,665.0,-33.0,-324.0
371,223.0,-1304.0,87.0,731.0,-16.0,-343.0
372,165.0,-1383.0,80.0,838.0,16.0,-320.0
373,353.0,-1402.0,73.0,982.0,24.0,-299.0
374,196.0,-1663.0,53.0,1100.0,122.0,-322.0
375,240.0,-1732.0,37.0,1324.0,109.0,-227.0
376,293.0,-1895.0,23.0,1539.0,129.0,-162.0
377,-91.0,-553.0,-1146.0,-493.0,-1061.0,-178.0
378,75.0,-993.0,-845.0,-493.0,-1009.0,-694.0
379,214.0,216.0,-779.0,-208.0,-859.0,-647.0
380,420.0,630.0,-902.0,-578.0,-649.0,-120.0
381,500.0,210.0,-910.0,-1287.0,-285.0,235.0
382,511.0,7.0,-907.0,-1781.0,117.0,209.0
383,388.0,-109.0,-850.0,-2117.0,518.0,32.0
384,-328.0,-526.0,-538.0,-3055.0,849.0,451.0
385,-198.0,-1250.0,-261.0,-3733.0,-79.0,486.0
386,-180.0,-1373.0,-188.0,-3805.0,-231.0,452.0
387,-150.0,-1481.0,-111.0,-3864.0,-364.0,492.0
388,-114.0,-1642.0,-28.0,-3920.0,-458.0,571.0
389,-107.0,-1775.0,67.0,-3941.0,-509.0,671.0
390,-90.0,-1833.0,146.0,-3945.0,-529.0,802.0
391,37.0,-1923.0,222.0,-4018.0,-470.0,1125.0
392,-205.0,-1867.0,1051.0,-2298.0,-700.0,777.0
393,1125.0,-1095.0,888.0,168.0,-43.0,-436.0
394,1061.0,-1022.0,796.0,350.0,529.0,-403.0
395,986.0,-1038.0,695.0,498.0,1097.0,-324.0
396,933.0,-983.0,474.0,826.0,2146.0,-253.0
397,-1321.0,78.0,-1043.0,2150.0,4046.0,284.0
398,-1291.0,-1004.0,-1607.0,1259.0,2337.0,-337.0
399,881.0,-873.0,-256.0,4609.0,487.0,-756.0
400,305.0,-179.0,1054.0,4687.0,527.0,-198.0
401,-20.0,419.0,1093.0,1701.0,-106.0,-538.0
402,499.0,-873.0,219.0,498.0,-213.0,-375.0
403,-73.0,-1526.0,-230.0,219.0,-42.0,-103.0
404,210.0,-999.0,39.0,535.0,-60.0,-160.0
405,39.0,-832.0,101.0,554.0,-16.0,-104.0
406,49.0,-803.0,128.0,375.0,-81.0,-197.0
407,115.0,-973.0,79.0,-8.0,-52.0,119.0
408,97.0,-1000.0,56.0,-81.0,-34.0,75.0
409,91.0,-1005.0,52.0,-75.0,-33.0,70.0
410,88.0,-1012.0,47.0,-65.0,-34.0,59.0
411,93.0,-1013.0,45.0,-49.0,-37.0,46.0
412,96.0,-1010.0,45.0,-31.0,-40.0,38.0
413,92.0,-1011.0,43.0,-12.0,-41.0,30.0
414,77.0,-1022.0,38.0,10.0,-44.0,15.0
415,84.0,-1010.0,41.0,39.0,-48.0,-12.0
416,98.0,-987.0,59.0,80.0,-42.0,-17.0
417,101.0,-974.0,71.0,119.0,-39.0,-75.0
418,104.0,-970.0,72.0,111.0,-37.0,-76.0
419,109.0,-977.0,69.0,103.0,-37.0,-73.0
420,114.0,-980.0,67.0,98.0,-38.0,-62.0
421,115.0,-971.0,73.0,95.0,-37.0,-49.0
422,111.0,-978.0,71.0,90.0,-36.0,-37.0
423,109.0,-993.0,65.0,89.0,-36.0,-29.0
424,102.0,-983.0,73.0,93.0,-35.0,-25.0
425,100.0,-971.0,80.0,92.0,-34.0,-27.0
426,102.0,-975.0,78.0,80.0,-33.0,-32.0
427,100.0,-968.0,81.0,71.0,-32.0,-36.0
428,103.0,-962.0,81.0,40.0,-33.0,-46.0
429,91.0,-991.0,64.0,2.0,-25.0,21.0
430,87.0,-992.0,64.0,10.0,-25.0,2.0
431,85.0,-997.0,62.0,18.0,-24.0,-24.0
432,105.0,-1003.0,57.0,29.0,-25.0,-49.0
433,115.0,-1001.0,61.0,46.0,-23.0,-57.0
434,114.0,-1005.0,63.0,58.0,-21.0,-51.0
435,115.0,-1003.0,65.0,67.0,-21.0,-43.0
436,118.0,-994.0,68.0,74.0,-20.0,-32.0
437,114.0,-987.0,71.0,77.0,-19.0,-20.0
438,111.0,-982.0,76.0,76.0,-20.0,-12.0
439,111.0,-982.0,79.0,69.0,-18.0,-8.0
440,120.0,-978.0,92.0,43.0,-15.0,2.0
441,-129.0,-1366.0,-113.0,46.0,4394.0,-1822.0
442,-168.0,-1304.0,-157.0,196.0,4315.0,-1626.0
443,-217.0,-1149.0,-182.0,282.0,4241.0,-1580.0
444,-216.0,-1011.0,-256.0,247.0,4163.0,-1606.0
445,-212.0,-909.0,-393.0,111.0,4123.0,-1631.0
446,-205.0,-915.0,-539.0,-65.0,4123.0,-1638.0
447,-187.0,-870.0,-660.0,-218.0,4171.0,-1630.0
448,-172.0,-815.0,-778.0,-360.0,4274.0,-1568.0
449,-209.0,-759.0,-893.0,-502.0,4418.0,-1444.0
450,-601.0,-559.0,-990.0,-1326.0,4699.0,-800.0
451,-668.0,-1329.0,-363.0,-2913.0,3752.0,294.0
452,-688.0,-1365.0,-312.0,-2923.0,3727.0,400.0
453,-716.0,-1383.0,-261.0,-2932.0,3690.0,514.0
454,-752.0,-1441.0,-211.0,-2956.0,3630.0,609.0
455,-783.0,-1500.0,-150.0,-2966.0,3536.0,691.0
456,-814.0,-1455.0,-81.0,-2962.0,3410.0,797.0
457,-840.0,-1457.0,-33.0,-3015.0,3249.0,896.0
458,-840.0,-1569.0,-1.0,-3091.0,3051.0,941.0
459,-825.0,-1670.0,47.0,-3095.0,2823.0,963.0
460,-804.0,-1659.0,91.0,-3022.0,2577.0,1008.0
461,-764.0,-1591.0,139.0,-2960.0,2324.0,1080.0
462,-632.0,-1659.0,264.0,-2965.0,1883.0,1184.0
463,791.0,-1327.0,1365.0,-523.0,-419.0,751.0
464,-1118.0,-1286.0,-1747.0,2586.0,855.0,-669.0
465,233.0,-1406.0,-563.0,4085.0,117.0,-1369.0
466,942.0,-499.0,472.0,4510.0,110.0,-1200.0
467,59.0,-291.0,882.0,3621.0,523.0,-503.0
468,-403.0,-998.0,307.0,2538.0,323.0,-391.0
469,282.0,-1062.0,35.0,2109.0,-52.0,-565.0
470,329.0,-819.0,206.0,1911.0,1.0,-362.0
471,69.0,-732.0,315.0,1547.0,29.0,-75.0
472,27.0,-882.0,171.0,1102.0,-44.0,28.0
473,61.0,-918.0,51.0,852.0,-72.0,36.0
474,34.0,-870.0,93.0,745.0,-66.0,37.0
475,38.0,-913.0,87.0,517.0,-46.0,-112.0