sequence,AccelerometerX,AccelerometerY,AccelerometerZ,GyroscopeX,GyroscopeY,GyroscopeZ
68,121.0,-977.0,222.0,-18.0,75.0,-42.0
69,106.0,-967.0,227.0,-5.0,78.0,-24.0
70,95.0,-966.0,232.0,-35.0,41.0,-102.0
71,97.0,-972.0,235.0,-37.0,37.0,-114.0
72,124.0,-973.0,227.0,-40.0,32.0,-122.0
73,126.0,-972.0,223.0,-39.0,43.0,-116.0
74,121.0,-965.0,230.0,-35.0,56.0,-107.0
75,107.0,-960.0,235.0,-35.0,66.0,-106.0
76,116.0,-964.0,231.0,-38.0,71.0,-116.0
77,116.0,-976.0,223.0,-40.0,80.0,-119.0
78,115.0,-977.0,221.0,-35.0,87.0,-123.0
79,114.0,-968.0,227.0,-27.0,89.0,-125.0
80,125.0,-966.0,228.0,-24.0,87.0,-128.0
81,137.0,-951.0,229.0,-59.0,94.0,-150.0
82,141.0,-955.0,224.0,-63.0,94.0,-145.0
83,149.0,-956.0,222.0,-62.0,93.0,-135.0
84,156.0,-957.0,221.0,-59.0,94.0,-120.0
85,156.0,-969.0,221.0,-59.0,102.0,-104.0
86,152.0,-970.0,219.0,-57.0,109.0,-90.0
87,132.0,-969.0,222.0,-53.0,119.0,-83.0
88,130.0,-972.0,223.0,-54.0,120.0,-87.0
89,145.0,-967.0,219.0,-53.0,116.0,-94.0
90,149.0,-961.0,219.0,-50.0,118.0,-90.0
91,157.0,-963.0,213.0,-45.0,121.0,-79.0
92,119.0,-956.0,227.0,2.0,101.0,38.0
93,120.0,-961.0,229.0,-3.0,92.0,30.0
94,134.0,-964.0,222.0,-9.0,86.0,25.0
95,140.0,-958.0,223.0,-10.0,86.0,26.0
96,131.0,-957.0,225.0,-9.0,90.0,30.0
97,126.0,-963.0,226.0,-11.0,91.0,31.0
98,136.0,-969.0,220.0,-14.0,89.0,32.0
99,136.0,-968.0,220.0,-13.0,90.0,36.0
100,131.0,-967.0,220.0,-12.0,93.0,42.0
101,138.0,-950.0,222.0,28.0,91.0,82.0
102,99.0,-976.0,221.0,-7.0,88.0,47.0
103,89.0,-966.0,226.0,-7.0,92.0,34.0
104,83.0,-971.0,230.0,-12.0,90.0,18.0
105,87.0,-966.0,229.0,-19.0,87.0,-3.0
106,88.0,-967.0,222.0,-26.0,86.0,-18.0
107,93.0,-964.0,224.0,-25.0,83.0,-28.0
108,97.0,-964.0,226.0,-23.0,80.0,-35.0
109,104.0,-963.0,223.0,-22.0,75.0,-39.0
110,94.0,-964.0,221.0,-37.0,70.0,-17.0
111,101.0,-967.0,223.0,-41.0,66.0,-19.0
112,95.0,-969.0,221.0,-47.0,66.0,-22.0
113,102.0,-970.0,218.0,-52.0,64.0,-26.0
114,102.0,-970.0,217.0,-54.0,65.0,-26.0
115,103.0,-969.0,214.0,-55.0,65.0,-27.0
116,103.0,-967.0,213.0,-55.0,65.0,-27.0
117,103.0,-965.0,213.0,-52.0,63.0,-27.0
118,103.0,-964.0,213.0,-47.0,62.0,-26.0
119,102.0,-965.0,214.0,-43.0,60.0,-24.0
120,102.0,-964.0,215.0,-41.0,58.0,-22.0
121,105.0,-973.0,209.0,1.0,61.0,-15.0
122,101.0,-962.0,212.0,-9.0,63.0,-40.0
123,107.0,-965.0,215.0,-9.0,61.0,-40.0
124,104.0,-968.0,203.0,-10.0,60.0,-36.0
125,109.0,-966.0,212.0,-4.0,59.0,-34.0
126,101.0,-969.0,209.0,-3.0,61.0,-32.0
127,114.0,-970.0,209.0,-3.0,57.0,-32.0
128,105.0,-971.0,206.0,-2.0,61.0,-29.0
129,106.0,-969.0,212.0,1.0,61.0,-29.0
130,105.0,-969.0,206.0,-1.0,62.0,-27.0
131,103.0,-968.0,207.0,3.0,63.0,-30.0
132,106.0,-971.0,210.0,7.0,62.0,-32.0
133,109.0,-980.0,202.0,10.0,63.0,-37.0
134,108.0,-975.0,206.0,19.0,65.0,-39.0
135,97.0,-966.0,212.0,25.0,66.0,-37.0
136,96.0,-966.0,209.0,26.0,62.0,-40.0
137,99.0,-967.0,214.0,0.0,64.0,-24.0
138,103.0,-964.0,220.0,-2.0,62.0,-30.0
139,104.0,-963.0,219.0,-7.0,64.0,-34.0
140,107.0,-964.0,217.0,-12.0,64.0,-36.0
141,104.0,-964.0,220.0,-13.0,64.0,-36.0
142,108.0,-965.0,214.0,-15.0,61.0,-35.0
143,109.0,-965.0,215.0,-15.0,61.0,-33.0
144,112.0,-965.0,215.0,-16.0,60.0,-29.0
145,108.0,-968.0,213.0,-17.0,60.0,-26.0
146,110.0,-966.0,217.0,-16.0,59.0,-23.0
147,102.0,-966.0,212.0,-18.0,62.0,-22.0
148,114.0,-975.0,201.0,6.0,64.0,-51.0
149,108.0,-962.0,212.0,15.0,62.0,-48.0
150,113.0,-960.0,217.0,13.0,58.0,-46.0
151,110.0,-961.0,217.0,6.0,58.0,-45.0
152,111.0,-961.0,214.0,0.0,56.0,-45.0
153,108.0,-963.0,210.0,-4.0,57.0,-47.0
154,109.0,-994.0,205.0,-4.0,60.0,-62.0
155,114.0,-1003.0,179.0,8.0,66.0,-84.0
156,105.0,-973.0,205.0,38.0,70.0,-94.0
157,106.0,-950.0,228.0,43.0,63.0,-100.0
158,115.0,-954.0,221.0,23.0,60.0,-106.0
159,121.0,-960.0,221.0,5.0,62.0,-110.0
160,111.0,-964.0,219.0,-11.0,66.0,-111.0
161,112.0,-975.0,216.0,-24.0,66.0,-120.0
162,104.0,-998.0,224.0,-38.0,68.0,-139.0
163,138.0,-1005.0,190.0,-54.0,65.0,-172.0
164,132.0,-1057.0,236.0,127.0,438.0,-828.0
165,197.0,-1012.0,232.0,170.0,396.0,-765.0
166,252.0,-1038.0,210.0,163.0,430.0,-690.0
167,311.0,-970.0,170.0,183.0,488.0,-626.0
168,209.0,-1072.0,170.0,128.0,647.0,-570.0
169,244.0,-1014.0,157.0,195.0,656.0,-482.0
170,344.0,-964.0,117.0,223.0,673.0,-434.0
171,482.0,-927.0,51.0,196.0,782.0,-446.0
172,488.0,-860.0,0.0,132.0,1053.0,-451.0
173,411.0,-907.0,-43.0,15.0,1380.0,-397.0
174,420.0,-903.0,-70.0,-49.0,1665.0,-337.0
175,300.0,-836.0,-99.0,-119.0,2025.0,-252.0
176,177.0,-877.0,-118.0,-256.0,2320.0,-130.0
177,109.0,-939.0,-197.0,-339.0,2529.0,-119.0
178,-22.0,-908.0,-197.0,-373.0,2708.0,-120.0
179,-60.0,-1027.0,57.0,-1219.0,1159.0,-211.0
180,-59.0,-1041.0,78.0,-1223.0,1114.0,-190.0
181,-23.0,-1071.0,93.0,-1228.0,1065.0,-176.0
182,36.0,-1116.0,100.0,-1215.0,1031.0,-159.0
183,57.0,-1110.0,118.0,-1164.0,1045.0,-151.0
184,36.0,-1087.0,136.0,-1125.0,1076.0,-155.0
185,90.0,-1149.0,285.0,-1150.0,1013.0,209.0
186,133.0,-1117.0,292.0,-1055.0,1004.0,208.0
187,189.0,-1082.0,290.0,-974.0,987.0,207.0
188,230.0,-1070.0,269.0,-900.0,979.0,221.0
189,278.0,-1068.0,242.0,-815.0,965.0,216.0
190,322.0,-1036.0,211.0,-717.0,961.0,168.0
191,341.0,-949.0,177.0,-630.0,980.0,79.0
192,326.0,-864.0,147.0,-615.0,1014.0,-34.0
193,280.0,-889.0,127.0,-683.0,1053.0,-130.0
194,232.0,-956.0,104.0,-726.0,1090.0,-166.0
195,209.0,-956.0,91.0,-692.0,1123.0,-138.0
196,210.0,-962.0,81.0,-645.0,1156.0,-106.0
197,249.0,-948.0,61.0,-600.0,1185.0,-112.0
198,252.0,-932.0,60.0,-566.0,1240.0,-124.0
199,210.0,-981.0,81.0,-545.0,1316.0,-94.0
200,293.0,-1399.0,-444.0,777.0,263.0,23.0
201,195.0,-957.0,121.0,714.0,-189.0,201.0
202,185.0,-937.0,169.0,700.0,-143.0,190.0
203,211.0,-924.0,192.0,664.0,-109.0,170.0
204,165.0,-941.0,184.0,597.0,-48.0,164.0
205,116.0,-942.0,193.0,535.0,0.0,137.0
206,137.0,-916.0,234.0,484.0,18.0,64.0
207,117.0,-921.0,249.0,394.0,60.0,-13.0
208,129.0,-954.0,222.0,288.0,87.0,-80.0
209,132.0,-956.0,220.0,224.0,109.0,-135.0
210,132.0,-938.0,240.0,185.0,114.0,-176.0
211,166.0,-954.0,212.0,134.0,108.0,-201.0
212,193.0,-982.0,164.0,52.0,170.0,-126.0
213,165.0,-968.0,194.0,36.0,168.0,-35.0
214,185.0,-957.0,210.0,43.0,157.0,-32.0
215,184.0,-959.0,207.0,43.0,159.0,-22.0
216,169.0,-947.0,213.0,45.0,166.0,-17.0
217,148.0,-950.0,214.0,46.0,170.0,-15.0
218,157.0,-957.0,216.0,44.0,160.0,-20.0
219,179.0,-953.0,215.0,40.0,147.0,-14.0
220,178.0,-956.0,214.0,35.0,150.0,4.0
221,177.0,-953.0,215.0,34.0,151.0,24.0
222,173.0,-956.0,215.0,35.0,153.0,41.0
223,147.0,-981.0,219.0,103.0,200.0,134.0
224,150.0,-981.0,217.0,118.0,204.0,136.0
225,156.0,-992.0,222.0,137.0,206.0,143.0
226,143.0,-1007.0,227.0,152.0,217.0,155.0
227,145.0,-994.0,230.0,168.0,219.0,165.0
228,181.0,-979.0,233.0,183.0,217.0,182.0
229,204.0,-980.0,233.0,198.0,241.0,214.0
230,153.0,-1004.0,238.0,211.0,292.0,253.0
231,136.0,-999.0,238.0,226.0,321.0,266.0
232,133.0,-1024.0,232.0,241.0,335.0,268.0
233,114.0,-1019.0,238.0,266.0,355.0,270.0
234,62.0,-933.0,311.0,379.0,159.0,176.0
235,81.0,-1067.0,399.0,703.0,118.0,148.0
236,84.0,-1036.0,404.0,719.0,155.0,105.0
237,91.0,-1045.0,407.0,722.0,201.0,83.0
238,155.0,-1031.0,402.0,748.0,241.0,84.0
239,216.0,-956.0,399.0,785.0,313.0,79.0
240,293.0,-970.0,396.0,759.0,401.0,73.0
241,357.0,-950.0,415.0,758.0,476.0,79.0
242,442.0,-931.0,379.0,746.0,572.0,43.0
243,501.0,-898.0,376.0,716.0,672.0,-11.0
244,494.0,-881.0,383.0,664.0,787.0,-89.0
245,484.0,-868.0,407.0,613.0,887.0,-123.0
246,550.0,-745.0,-89.0,-769.0,3.0,-533.0
247,255.0,-923.0,63.0,-1088.0,669.0,-1032.0
248,-224.0,-1298.0,-30.0,-1491.0,1891.0,-1294.0
249,-188.0,-1307.0,21.0,-1451.0,1967.0,-1300.0
250,-174.0,-1281.0,91.0,-1416.0,2132.0,-1293.0
251,-237.0,-1247.0,184.0,-1401.0,2376.0,-1267.0
252,-147.0,-1294.0,246.0,-1398.0,2612.0,-1195.0
253,-133.0,-1319.0,290.0,-1322.0,2902.0,-1096.0
254,-250.0,-1285.0,292.0,-1179.0,3207.0,-1004.0
255,-452.0,-1226.0,274.0,-1022.0,3438.0,-896.0
256,-580.0,-1208.0,240.0,-906.0,3519.0,-807.0
257,-722.0,-1185.0,236.0,-795.0,3488.0,-729.0
258,-807.0,-1157.0,260.0,-685.0,3330.0,-650.0
259,133.0,-880.0,139.0,492.0,-427.0,-386.0
260,83.0,-951.0,199.0,183.0,158.0,400.0
261,108.0,-975.0,237.0,175.0,50.0,223.0
262,85.0,-956.0,242.0,57.0,55.0,-35.0
263,113.0,-955.0,239.0,33.0,38.0,-65.0
264,137.0,-966.0,226.0,11.0,37.0,-77.0
265,138.0,-968.0,213.0,1.0,45.0,-68.0
266,125.0,-956.0,223.0,10.0,49.0,-54.0
267,146.0,-936.0,246.0,10.0,37.0,-44.0
268,146.0,-948.0,239.0,-11.0,43.0,-23.0
269,136.0,-962.0,228.0,-23.0,50.0,-4.0
270,133.0,-964.0,227.0,-20.0,47.0,7.0
271,141.0,-971.0,218.0,-19.0,47.0,17.0
272,135.0,-960.0,231.0,-13.0,51.0,33.0
273,121.0,-958.0,237.0,78.0,125.0,101.0
274,81.0,-937.0,260.0,73.0,148.0,173.0
275,68.0,-941.0,261.0,67.0,155.0,175.0
276,62.0,-969.0,247.0,61.0,163.0,168.0
277,72.0,-971.0,246.0,68.0,164.0,161.0
278,76.0,-967.0,250.0,79.0,166.0,167.0
279,68.0,-981.0,242.0,86.0,173.0,174.0
280,54.0,-966.0,252.0,100.0,175.0,179.0
281,46.0,-968.0,257.0,108.0,173.0,178.0
282,40.0,-968.0,261.0,112.0,174.0,171.0
283,51.0,-957.0,267.0,115.0,168.0,160.0
284,28.0,-955.0,265.0,116.0,169.0,156.0
285,113.0,-1077.0,291.0,218.0,310.0,333.0
286,-212.0,-1472.0,337.0,1568.0,-50.0,247.0
287,-200.0,-1484.0,333.0,1673.0,-116.0,222.0
288,-78.0,-1483.0,308.0,1783.0,-208.0,206.0
289,83.0,-1446.0,303.0,1897.0,-256.0,177.0
290,156.0,-1428.0,294.0,1995.0,-204.0,98.0
291,297.0,-1421.0,234.0,2078.0,-139.0,21.0
292,373.0,-1399.0,166.0,2151.0,8.0,7.0
293,397.0,-1351.0,156.0,2211.0,194.0,62.0
294,349.0,-1367.0,177.0,2257.0,383.0,234.0
295,417.0,-1353.0,282.0,2328.0,460.0,521.0
296,405.0,-1270.0,146.0,2442.0,610.0,854.0
297,194.0,-530.0,-105.0,-1171.0,-591.0,121.0
298,84.0,-1080.0,164.0,-2899.0,-4.0,-825.0
299,19.0,-1158.0,208.0,-2875.0,-145.0,-920.0
300,8.0,-1169.0,238.0,-2803.0,-354.0,-1024.0
301,94.0,-1220.0,235.0,-2750.0,-596.0,-1127.0
302,211.0,-1292.0,233.0,-2700.0,-788.0,-1241.0
303,316.0,-1367.0,249.0,-2647.0,-882.0,-1330.0
304,401.0,-1426.0,270.0,-2580.0,-880.0,-1344.0
305,427.0,-1476.0,275.0,-2541.0,-785.0,-1349.0
306,438.0,-1588.0,272.0,-2541.0,-652.0,-1393.0
307,333.0,-1699.0,307.0,-2490.0,-480.0,-1437.0
308,145.0,-1128.0,1313.0,-647.0,149.0,-454.0
309,-392.0,-1112.0,1288.0,-256.0,461.0,-553.0
310,-611.0,-1021.0,1113.0,127.0,363.0,-417.0
311,-470.0,-926.0,866.0,414.0,45.0,-198.0
312,-359.0,-901.0,653.0,576.0,-188.0,-64.0
313,-371.0,-913.0,494.0,690.0,-360.0,-35.0
314,-452.0,-940.0,359.0,794.0,-529.0,-15.0
315,-483.0,-900.0,247.0,903.0,-694.0,130.0
316,-374.0,-768.0,175.0,959.0,-847.0,304.0
317,-181.0,-662.0,131.0,870.0,-916.0,313.0
318,-249.0,-781.0,113.0,674.0,-799.0,375.0
319,184.0,-795.0,340.0,912.0,-159.0,363.0
320,145.0,-965.0,178.0,53.0,101.0,86.0
321,139.0,-962.0,151.0,70.0,111.0,-32.0
322,145.0,-939.0,171.0,106.0,98.0,-36.0
323,143.0,-902.0,217.0,109.0,84.0,-16.0
324,140.0,-920.0,197.0,62.0,85.0,1.0
325,108.0,-928.0,205.0,34.0,80.0,14.0
326,124.0,-963.0,181.0,6.0,71.0,14.0
327,141.0,-986.0,163.0,-6.0,68.0,15.0
328,146.0,-991.0,160.0,1.0,67.0,29.0
329,149.0,-987.0,168.0,12.0,76.0,43.0
330,150.0,-992.0,162.0,17.0,82.0,62.0
331,126.0,-993.0,165.0,29.0,85.0,81.0
332,124.0,-970.0,181.0,42.0,124.0,93.0
333,128.0,-963.0,192.0,50.0,118.0,104.0
334,122.0,-946.0,210.0,50.0,120.0,117.0
335,127.0,-950.0,213.0,38.0,129.0,123.0
336,117.0,-972.0,188.0,22.0,148.0,132.0
337,109.0,-981.0,175.0,26.0,155.0,137.0
338,96.0,-992.0,162.0,35.0,157.0,144.0
339,96.0,-991.0,162.0,51.0,144.0,151.0
340,64.0,-974.0,205.0,59.0,130.0,146.0
341,70.0,-983.0,191.0,62.0,127.0,152.0
342,70.0,-986.0,190.0,73.0,127.0,166.0
343,64.0,-978.0,202.0,91.0,126.0,181.0
344,49.0,-979.0,203.0,99.0,125.0,192.0
345,43.0,-974.0,211.0,109.0,119.0,199.0
346,46.0,-967.0,220.0,117.0,112.0,200.0
347,46.0,-965.0,220.0,122.0,105.0,205.0
348,51.0,-979.0,209.0,123.0,98.0,217.0
349,59.0,-977.0,211.0,136.0,86.0,243.0
350,59.0,-971.0,223.0,146.0,82.0,274.0
351,79.0,-1553.0,254.0,718.0,476.0,1047.0
352,429.0,-388.0,-176.0,347.0,-967.0,128.0
353,435.0,-448.0,-229.0,89.0,-630.0,114.0
354,370.0,-413.0,-244.0,-99.0,-305.0,65.0
355,231.0,-397.0,-243.0,-298.0,0.0,-7.0
356,81.0,-351.0,-237.0,-481.0,200.0,-50.0
357,-45.0,-355.0,-236.0,-693.0,285.0,-72.0
358,-105.0,-416.0,-238.0,-899.0,265.0,-75.0
359,-168.0,-430.0,-222.0,-1052.0,198.0,-84.0
360,-149.0,-462.0,-214.0,-1210.0,71.0,-92.0
361,-104.0,-505.0,-210.0,-1349.0,-53.0,-98.0
362,-18.0,-546.0,-217.0,-1467.0,-159.0,-132.0
363,192.0,-643.0,-233.0,-1682.0,-188.0,-261.0
364,165.0,-1194.0,359.0,-1467.0,-842.0,-414.0
365,137.0,-1197.0,345.0,-1496.0,-515.0,-359.0
366,87.0,-1226.0,344.0,-1512.0,-190.0,-279.0
367,78.0,-1227.0,354.0,-1464.0,85.0,-183.0
368,147.0,-1171.0,381.0,-1369.0,292.0,-156.0
369,261.0,-1110.0,403.0,-1265.0,436.0,-213.0
370,192.0,-1101.0,419.0,-1168.0,582.0,-350.0
371,37.0,-1103.0,411.0,-1044.0,664.0,-469.0
372,-108.0,-1046.0,377.0,-890.0,674.0,-484.0
373,-91.0,-987.0,324.0,-777.0,611.0,-458.0
374,-76.0,-992.0,276.0,-726.0,586.0,-441.0
375,-209.0,-958.0,180.0,112.0,160.0,-134.0
376,71.0,-835.0,-255.0,-109.0,-511.0,244.0
377,109.0,-1000.0,-457.0,-143.0,-334.0,229.0
378,186.0,-1265.0,-641.0,21.0,-120.0,223.0
379,201.0,-1456.0,-768.0,448.0,130.0,214.0
380,164.0,-1549.0,-810.0,931.0,307.0,212.0
381,90.0,-1458.0,-714.0,1356.0,405.0,170.0
382,0.0,-1290.0,-495.0,1523.0,443.0,28.0
383,-23.0,-1308.0,-298.0,1414.0,415.0,-100.0
384,17.0,-1004.0,-59.0,1713.0,54.0,-283.0
385,95.0,-860.0,141.0,1720.0,-2.0,-272.0
386,144.0,-718.0,374.0,1554.0,-2.0,-214.0
387,130.0,-725.0,418.0,1212.0,68.0,-151.0
388,118.0,-805.0,348.0,875.0,108.0,-106.0
389,91.0,-856.0,300.0,643.0,125.0,-79.0
390,95.0,-899.0,246.0,475.0,127.0,-78.0
391,83.0,-953.0,189.0,354.0,149.0,-90.0
392,81.0,-952.0,189.0,296.0,167.0,-110.0
393,72.0,-945.0,215.0,244.0,184.0,-125.0
394,96.0,-957.0,199.0,188.0,177.0,-134.0
395,88.0,-989.0,176.0,32.0,130.0,-123.0
396,108.0,-974.0,185.0,159.0,113.0,-17.0
397,94.0,-960.0,197.0,123.0,99.0,17.0
398,105.0,-966.0,194.0,111.0,100.0,19.0
399,103.0,-957.0,203.0,104.0,105.0,24.0
400,96.0,-955.0,212.0,91.0,110.0,29.0
401,104.0,-962.0,206.0,73.0,110.0,29.0
402,111.0,-958.0,206.0,65.0,113.0,37.0
403,101.0,-960.0,205.0,61.0,121.0,47.0
404,111.0,-957.0,207.0,60.0,125.0,55.0
405,103.0,-955.0,210.0,59.0,133.0,66.0
406,97.0,-952.0,214.0,56.0,140.0,75.0
407,84.0,-964.0,214.0,52.0,143.0,81.0
408,69.0,-963.0,226.0,58.0,131.0,98.0
409,73.0,-966.0,225.0,55.0,135.0,93.0
410,61.0,-973.0,223.0,53.0,148.0,88.0
411,59.0,-974.0,219.0,55.0,153.0,79.0
412,67.0,-966.0,225.0,59.0,152.0,74.0
413,62.0,-966.0,226.0,60.0,158.0,74.0
414,62.0,-972.0,220.0,61.0,160.0,75.0
415,51.0,-961.0,227.0,68.0,158.0,78.0
416,49.0,-1044.0,248.0,313.0,205.0,359.0
417,63.0,-1067.0,245.0,325.0,204.0,388.0
418,32.0,-1123.0,254.0,337.0,226.0,422.0
419,53.0,-1199.0,263.0,350.0,227.0,447.0
420,259.0,-1219.0,243.0,384.0,206.0,513.0
421,207.0,-1235.0,249.0,473.0,365.0,657.0
422,14.0,-1337.0,287.0,586.0,511.0,737.0
423,-29.0,-1429.0,302.0,773.0,506.0,698.0
424,43.0,-1599.0,317.0,1003.0,428.0,615.0
425,63.0,-1684.0,302.0,1335.0,425.0,509.0
426,59.0,-1510.0,341.0,1691.0,404.0,371.0
427,42.0,-786.0,430.0,2138.0,341.0,67.0
428,65.0,-759.0,406.0,2067.0,323.0,80.0
429,96.0,-678.0,387.0,2019.0,338.0,92.0
430,105.0,-587.0,433.0,1949.0,382.0,110.0
431,103.0,-537.0,481.0,1844.0,438.0,101.0
432,107.0,-413.0,525.0,1750.0,478.0,65.0
433,126.0,-256.0,530.0,1586.0,516.0,22.0
434,160.0,-57.0,506.0,1312.0,545.0,1.0
435,141.0,148.0,478.0,916.0,595.0,-7.0
436,37.0,62.0,267.0,-306.0,583.0,191.0
437,127.0,-1029.0,47.0,-2377.0,-840.0,-186.0
438,88.0,-1110.0,83.0,-2416.0,-755.0,-204.0
439,48.0,-1168.0,124.0,-2433.0,-704.0,-237.0
440,16.0,-1250.0,160.0,-2456.0,-689.0,-298.0
441,-1.0,-1303.0,201.0,-2460.0,-695.0,-359.0
442,-37.0,-1366.0,245.0,-2466.0,-694.0,-401.0
443,-89.0,-1408.0,294.0,-2455.0,-695.0,-405.0
444,-137.0,-1433.0,333.0,-2432.0,-715.0,-382.0
445,-135.0,-1464.0,353.0,-2395.0,-767.0,-344.0
446,-139.0,-1455.0,369.0,-2329.0,-822.0,-318.0
447,-143.0,-1448.0,370.0,-2267.0,-884.0,-308.0
448,-143.0,-1479.0,369.0,-2210.0,-947.0,-283.0
449,-121.0,-1472.0,374.0,-2120.0,-1009.0,-242.0
450,-91.0,-1493.0,383.0,-2038.0,-1046.0,-193.0
451,108.0,-957.0,398.0,-729.0,522.0,-186.0
452,89.0,-870.0,-430.0,2555.0,799.0,402.0
453,-464.0,-1130.0,286.0,2054.0,1178.0,125.0
454,-458.0,-927.0,783.0,1883.0,904.0,-264.0
455,-101.0,-865.0,613.0,1747.0,483.0,-546.0
456,189.0,-959.0,149.0,1575.0,336.0,-611.0
457,169.0,-1010.0,-142.0,1518.0,399.0,-501.0
458,117.0,-987.0,-88.0,1512.0,418.0,-342.0
459,3.0,-877.0,242.0,1469.0,358.0,-220.0
460,-55.0,-803.0,354.0,1282.0,215.0,-160.0
461,76.0,-873.0,306.0,1025.0,25.0,-122.0
462,116.0,-852.0,338.0,861.0,-12.0,-51.0
463,59.0,-964.0,204.0,45.0,70.0,-67.0
464,51.0,-960.0,225.0,70.0,102.0,-17.0
465,50.0,-962.0,222.0,66.0,101.0,-16.0
466,47.0,-962.0,227.0,64.0,102.0,-19.0
467,40.0,-974.0,227.0,55.0,101.0,-25.0
468,70.0,-980.0,217.0,48.0,94.0,-29.0
469,63.0,-975.0,214.0,51.0,100.0,-20.0
470,47.0,-975.0,212.0,56.0,109.0,-16.0
471,50.0,-973.0,223.0,65.0,111.0,-20.0
472,40.0,-980.0,221.0,71.0,118.0,-26.0
473,26.0,-992.0,207.0,82.0,121.0,-37.0
474,49.0,-978.0,209.0,98.0,102.0,-45.0
475,37.0,-972.0,233.0,133.0,105.0,-61.0
476,103.0,-949.0,255.0,35.0,60.0,-63.0
477,81.0,-947.0,253.0,31.0,80.0,-47.0
478,49.0,-946.0,256.0,27.0,94.0,-43.0
479,1.0,-956.0,257.0,22.0,92.0,-54.0
480,29.0,-947.0,248.0,23.0,60.0,-73.0
481,39.0,-940.0,255.0,26.0,40.0,-82.0
482,40.0,-932.0,259.0,27.0,28.0,-88.0
483,52.0,-931.0,257.0,25.0,17.0,-90.0
484,48.0,-934.0,262.0,24.0,10.0,-89.0
485,59.0,-946.0,261.0,21.0,6.0,-92.0
486,56.0,-964.0,256.0,22.0,9.0,-92.0
487,78.0,-934.0,260.0,-75.0,20.0,-111.0
488,76.0,-964.0,235.0,-217.0,-72.0,-187.0
489,79.0,-961.0,232.0,-206.0,-92.0,-192.0
490,84.0,-960.0,228.0,-191.0,-110.0,-191.0
491,95.0,-962.0,222.0,-172.0,-130.0,-188.0
492,101.0,-967.0,223.0,-149.0,-146.0,-176.0
493,101.0,-978.0,216.0,-129.0,-163.0,-162.0
494,153.0,-982.0,199.0,-106.0,-189.0,-146.0
495,159.0,-982.0,192.0,-78.0,-180.0,-116.0
496,161.0,-966.0,200.0,-48.0,-168.0,-85.0
497,133.0,-966.0,211.0,-36.0,-14.0,-67.0
498,136.0,-960.0,212.0,-40.0,-18.0,-64.0
499,136.0,-952.0,217.0,-44.0,-15.0,-67.0
500,134.0,-956.0,217.0,-45.0,-1.0,-80.0
501,125.0,-956.0,213.0,-44.0,13.0,-93.0
502,132.0,-960.0,207.0,-40.0,17.0,-98.0
503,144.0,-957.0,216.0,-35.0,15.0,-96.0
504,166.0,-983.0,209.0,-38.0,23.0,-91.0
505,169.0,-1008.0,179.0,-39.0,53.0,-80.0
506,157.0,-979.0,201.0,-5.0,43.0,-54.0
507,151.0,-965.0,217.0,-5.0,52.0,-38.0
508,130.0,-1007.0,200.0,-187.0,52.0,-44.0
509,133.0,-1011.0,190.0,-191.0,51.0,-45.0
510,110.0,-1026.0,189.0,-180.0,58.0,-45.0
511,99.0,-1036.0,187.0,-158.0,52.0,-68.0
512,84.0,-1040.0,189.0,-131.0,46.0,-97.0
513,74.0,-1041.0,188.0,-102.0,23.0,-121.0
514,51.0,-1052.0,172.0,-75.0,-5.0,-130.0
515,-52.0,-1013.0,163.0,-59.0,-40.0,-87.0
516,-342.0,-1069.0,189.0,-103.0,-106.0,57.0
517,6.0,-1033.0,215.0,-111.0,-444.0,71.0
518,-174.0,-1026.0,298.0,-116.0,-459.0,106.0
519,-152.0,-1193.0,295.0,352.0,-3104.0,1634.0
520,-148.0,-1247.0,209.0,399.0,-3287.0,1525.0
521,-128.0,-1242.0,105.0,532.0,-3503.0,1469.0
522,-64.0,-1162.0,-13.0,676.0,-3740.0,1423.0
523,-2.0,-1137.0,-146.0,730.0,-3962.0,1353.0
524,34.0,-1139.0,-270.0,749.0,-4164.0,1260.0
525,77.0,-1131.0,-380.0,771.0,-4349.0,1163.0
526,103.0,-1082.0,-474.0,789.0,-4496.0,1082.0
527,183.0,-1011.0,-555.0,776.0,-4605.0,1025.0
528,258.0,-1009.0,-623.0,705.0,-4639.0,961.0
529,312.0,-985.0,-647.0,646.0,-4606.0,899.0
530,323.0,-853.0,-306.0,-172.0,-3375.0,296.0
531,-237.0,-1049.0,14.0,-845.0,-1919.0,487.0
532,-241.0,-1086.0,119.0,-841.0,-1862.0,622.0
533,-228.0,-1106.0,126.0,-853.0,-1837.0,674.0
534,-242.0,-1110.0,144.0,-837.0,-1799.0,735.0
535,-299.0,-1117.0,178.0,-811.0,-1793.0,778.0
536,-365.0,-1105.0,226.0,-770.0,-1877.0,802.0
537,-417.0,-1097.0,259.0,-728.0,-2060.0,819.0
538,-429.0,-1110.0,281.0,-679.0,-2321.0,836.0
539,-400.0,-1125.0,282.0,-607.0,-2627.0,843.0
540,-330.0,-1143.0,278.0,-514.0,-2935.0,827.0
541,-249.0,-1160.0,270.0,-404.0,-3204.0,802.0
542,-191.0,-1165.0,270.0,-269.0,-3405.0,774.0
543,1373.0,-68.0,-109.0,278.0,-1981.0,44.0
544,969.0,-986.0,-159.0,-530.0,-979.0,-310.0
545,513.0,-710.0,-229.0,-260.0,-508.0,-908.0
546,337.0,-997.0,-185.0,-63.0,-467.0,-1149.0
547,558.0,-1110.0,-108.0,352.0,-496.0,-979.0
548,745.0,-889.0,137.0,676.0,-295.0,-651.0
549,534.0,-886.0,378.0,551.0,77.0,-189.0
550,369.0,-1148.0,383.0,371.0,131.0,271.0
551,503.0,-1317.0,138.0,295.0,10.0,671.0
552,554.0,-1390.0,20.0,316.0,-17.0,1090.0
553,243.0,-1329.0,128.0,386.0,163.0,1446.0
554,100.0,-954.0,250.0,-16.0,-69.0,-243.0
555,84.0,-986.0,202.0,-15.0,-16.0,-168.0
556,98.0,-968.0,220.0,13.0,-16.0,-152.0
557,112.0,-965.0,224.0,23.0,-14.0,-131.0
558,108.0,-969.0,226.0,26.0,-3.0,-104.0
559,91.0,-976.0,212.0,27.0,8.0,-81.0
560,105.0,-960.0,224.0,37.0,3.0,-62.0
561,115.0,-953.0,232.0,43.0,2.0,-38.0
562,119.0,-956.0,230.0,33.0,12.0,-15.0
563,106.0,-956.0,234.0,23.0,28.0,9.0
564,100.0,-957.0,238.0,13.0,40.0,22.0
565,90.0,-957.0,240.0,-1.0,54.0,26.0
566,106.0,-980.0,211.0,-49.0,29.0,-6.0
567,80.0,-964.0,225.0,31.0,102.0,78.0
568,82.0,-958.0,225.0,29.0,111.0,73.0
569,66.0,-953.0,232.0,27.0,122.0,68.0
570,73.0,-957.0,232.0,23.0,123.0,60.0
571,87.0,-962.0,225.0,20.0,127.0,59.0
572,76.0,-969.0,224.0,16.0,137.0,66.0
573,79.0,-973.0,224.0,16.0,140.0,69.0
574,76.0,-968.0,226.0,17.0,143.0,75.0
575,73.0,-969.0,227.0,18.0,146.0,79.0
576,70.0,-968.0,237.0,18.0,148.0,84.0
577,76.0,-971.0,240.0,10.0,145.0,89.0
578,42.0,-1289.0,236.0,251.0,196.0,259.0
579,910.0,-1351.0,-133.0,2625.0,1149.0,-243.0
580,733.0,-1019.0,-42.0,2589.0,1387.0,-350.0
581,593.0,-701.0,127.0,2418.0,1484.0,-493.0
582,382.0,-426.0,215.0,2154.0,1462.0,-594.0
583,373.0,-256.0,37.0,1770.0,1219.0,-671.0
584,460.0,-232.0,-128.0,1296.0,1046.0,-747.0
585,107.0,-203.0,-117.0,915.0,1098.0,-764.0
586,-222.0,-126.0,-304.0,580.0,894.0,-811.0
587,-933.0,-242.0,-154.0,141.0,441.0,-798.0
588,423.0,-257.0,-399.0,-134.0,-1135.0,-744.0
589,487.0,-17.0,-409.0,-350.0,-1143.0,-879.0
590,-84.0,-1259.0,133.0,-2651.0,-486.0,-855.0
591,-127.0,-1308.0,192.0,-2491.0,-537.0,-847.0
592,-103.0,-1337.0,231.0,-2342.0,-614.0,-814.0
593,-40.0,-1288.0,271.0,-2217.0,-687.0,-705.0
594,-11.0,-1375.0,306.0,-2209.0,-719.0,-531.0
595,203.0,-1540.0,338.0,-2181.0,-783.0,-313.0
596,469.0,-1633.0,388.0,-1984.0,-728.0,-125.0
597,449.0,-1551.0,506.0,-1669.0,-472.0,-197.0
598,357.0,-1469.0,540.0,-1442.0,-201.0,-467.0
599,30.0,-1428.0,591.0,-1285.0,109.0,-605.0
600,-236.0,-1334.0,632.0,-1147.0,238.0,-537.0
601,-434.0,-769.0,675.0,807.0,199.0,9.0
602,156.0,-977.0,81.0,157.0,-29.0,95.0
603,209.0,-970.0,69.0,181.0,-42.0,61.0
604,228.0,-950.0,61.0,205.0,-30.0,58.0
605,220.0,-961.0,38.0,220.0,-18.0,81.0
606,290.0,-973.0,21.0,246.0,-38.0,111.0
607,309.0,-955.0,48.0,282.0,-21.0,163.0
608,266.0,-940.0,72.0,296.0,29.0,216.0
609,231.0,-952.0,79.0,300.0,83.0,248.0
610,219.0,-972.0,74.0,310.0,124.0,262.0
611,214.0,-982.0,75.0,328.0,151.0,275.0
612,141.0,-971.0,143.0,48.0,110.0,67.0
613,143.0,-968.0,145.0,40.0,98.0,72.0
614,146.0,-981.0,132.0,27.0,94.0,78.0
615,153.0,-977.0,143.0,35.0,91.0,81.0
616,161.0,-973.0,144.0,38.0,93.0,90.0
617,153.0,-980.0,144.0,33.0,101.0,103.0
618,151.0,-975.0,149.0,29.0,109.0,113.0
619,130.0,-979.0,147.0,20.0,117.0,118.0
620,131.0,-981.0,141.0,13.0,117.0,113.0
621,139.0,-977.0,146.0,12.0,117.0,111.0
622,138.0,-977.0,146.0,11.0,120.0,114.0
623,122.0,-983.0,135.0,21.0,120.0,130.0
624,75.0,-978.0,168.0,88.0,159.0,276.0
625,57.0,-981.0,174.0,107.0,144.0,304.0
626,42.0,-988.0,168.0,106.0,147.0,306.0
627,42.0,-985.0,172.0,114.0,141.0,305.0
628,38.0,-980.0,179.0,121.0,136.0,307.0
629,17.0,-981.0,175.0,132.0,132.0,312.0
630,21.0,-990.0,177.0,146.0,117.0,311.0
631,38.0,-986.0,180.0,160.0,95.0,322.0
632,36.0,-999.0,190.0,173.0,85.0,349.0
633,86.0,-1079.0,127.0,180.0,81.0,366.0
634,53.0,-1063.0,135.0,263.0,108.0,401.0
635,62.0,-997.0,207.0,340.0,98.0,455.0
636,-265.0,-1642.0,99.0,1741.0,-264.0,1098.0
637,278.0,-802.0,-22.0,-2496.0,13.0,-259.0
638,278.0,-886.0,33.0,-2580.0,93.0,-318.0
639,225.0,-974.0,100.0,-2650.0,165.0,-405.0
640,200.0,-1080.0,143.0,-2695.0,160.0,-506.0
641,118.0,-1172.0,180.0,-2681.0,110.0,-620.0
642,71.0,-1215.0,200.0,-2615.0,-34.0,-756.0
643,76.0,-1228.0,195.0,-2546.0,-244.0,-900.0
644,138.0,-1259.0,163.0,-2501.0,-469.0,-1029.0
645,194.0,-1295.0,146.0,-2468.0,-647.0,-1138.0
646,186.0,-1369.0,729.0,-1614.0,-723.0,-407.0
647,108.0,-1784.0,-1054.0,2336.0,243.0,-299.0
648,1.0,-1140.0,-425.0,2656.0,423.0,-508.0
649,-71.0,-1202.0,131.0,2274.0,599.0,-558.0
650,11.0,-992.0,627.0,2121.0,608.0,-569.0
651,174.0,-858.0,667.0,1855.0,592.0,-598.0
652,145.0,-831.0,332.0,1515.0,634.0,-528.0
653,94.0,-958.0,17.0,1172.0,544.0,-396.0
654,90.0,-969.0,43.0,994.0,330.0,-264.0
655,149.0,-902.0,149.0,865.0,99.0,-132.0
656,105.0,-935.0,128.0,704.0,-22.0,-1.0
657,112.0,-955.0,89.0,613.0,-92.0,58.0
658,88.0,-992.0,135.0,239.0,62.0,-63.0
659,130.0,-983.0,167.0,189.0,92.0,38.0
660,106.0,-971.0,180.0,191.0,110.0,44.0
661,94.0,-965.0,189.0,175.0,128.0,38.0
662,103.0,-967.0,193.0,151.0,136.0,26.0
663,101.0,-972.0,192.0,127.0,149.0,21.0
664,105.0,-971.0,182.0,109.0,161.0,20.0
665,100.0,-977.0,176.0,99.0,166.0,25.0
666,88.0,-981.0,170.0,96.0,164.0,29.0
667,99.0,-958.0,191.0,101.0,148.0,34.0
668,97.0,-961.0,189.0,88.0,147.0,39.0
669,88.0,-959.0,193.0,81.0,150.0,40.0
670,85.0,-954.0,190.0,65.0,161.0,42.0
671,112.0,-963.0,204.0,63.0,147.0,66.0
672,89.0,-966.0,204.0,53.0,172.0,80.0
673,71.0,-963.0,210.0,46.0,187.0,84.0
674,71.0,-970.0,209.0,34.0,197.0,76.0
675,74.0,-977.0,202.0,25.0,202.0,71.0
676,85.0,-976.0,201.0,25.0,201.0,75.0
677,80.0,-972.0,205.0,28.0,202.0,86.0
678,65.0,-967.0,206.0,30.0,205.0,95.0
679,45.0,-961.0,208.0,31.0,203.0,95.0
680,47.0,-965.0,206.0,28.0,188.0,89.0
681,47.0,-958.0,212.0,28.0,173.0,88.0
682,53.0,-1015.0,219.0,184.0,227.0,303.0
683,128.0,-1276.0,310.0,1564.0,655.0,390.0
684,250.0,-1360.0,307.0,1487.0,602.0,127.0
685,183.0,-1438.0,290.0,1485.0,688.0,70.0
686,137.0,-1342.0,269.0,1568.0,788.0,92.0
687,11.0,-1355.0,245.0,1610.0,819.0,15.0
688,-63.0,-1343.0,235.0,1665.0,814.0,-40.0
689,-236.0,-1298.0,260.0,1743.0,819.0,-65.0
690,-249.0,-1330.0,243.0,1786.0,763.0,-56.0
691,-199.0,-275.0,-209.0,-274.0,517.0,332.0
692,55.0,-666.0,-214.0,-759.0,209.0,364.0
693,264.0,-708.0,-233.0,-742.0,92.0,244.0
694,118.0,-525.0,-204.0,-611.0,281.0,106.0
695,112.0,-468.0,-242.0,-725.0,305.0,22.0
696,74.0,-379.0,-254.0,-858.0,339.0,1.0
697,73.0,-368.0,-258.0,-1065.0,357.0,-12.0
698,61.0,-413.0,-239.0,-1293.0,376.0,-62.0
699,11.0,-424.0,-190.0,-1468.0,385.0,-108.0
700,-41.0,-411.0,-137.0,-1639.0,356.0,-140.0
701,-67.0,-486.0,-107.0,-1855.0,280.0,-177.0
702,-60.0,-722.0,-33.0,-2124.0,106.0,-241.0
703,155.0,-1338.0,330.0,-1786.0,-1237.0,-681.0
704,-56.0,-1374.0,385.0,-1077.0,-638.0,-408.0
705,-107.0,-1333.0,417.0,-908.0,-517.0,-340.0
706,-137.0,-1363.0,451.0,-813.0,-459.0,-328.0
707,-95.0,-1294.0,491.0,-635.0,-484.0,-321.0
708,-2.0,-1065.0,536.0,-535.0,-521.0,-340.0
709,83.0,-876.0,546.0,-613.0,-528.0,-412.0
710,77.0,-761.0,612.0,-832.0,-506.0,-478.0
711,116.0,-803.0,585.0,-1181.0,-522.0,-455.0
712,98.0,-948.0,558.0,-1409.0,-483.0,-406.0
713,-44.0,-1052.0,603.0,-1467.0,-411.0,-367.0
714,-12.0,-1138.0,657.0,-1369.0,-467.0,-362.0
715,-7.0,-1083.0,840.0,-909.0,-435.0,-309.0
716,316.0,-572.0,-133.0,1604.0,161.0,-403.0
717,378.0,-852.0,-188.0,1146.0,141.0,-13.0
718,40.0,-1045.0,347.0,938.0,176.0,289.0
719,81.0,-745.0,597.0,907.0,-153.0,325.0
720,84.0,-877.0,448.0,591.0,-232.0,373.0
721,10.0,-1005.0,315.0,354.0,-106.0,387.0
722,-29.0,-987.0,252.0,258.0,-10.0,287.0
723,-34.0,-1008.0,193.0,174.0,55.0,162.0
724,-12.0,-1009.0,169.0,134.0,89.0,54.0
725,12.0,-1004.0,143.0,128.0,111.0,-30.0
726,29.0,-984.0,143.0,141.0,128.0,-86.0
727,35.0,-972.0,156.0,146.0,133.0,-112.0
728,41.0,-969.0,166.0,141.0,127.0,-125.0
729,69.0,-964.0,173.0,144.0,107.0,-128.0
730,58.0,-981.0,203.0,165.0,92.0,-101.0
731,69.0,-961.0,225.0,22.0,57.0,84.0
732,50.0,-971.0,224.0,15.0,70.0,88.0
733,50.0,-969.0,225.0,15.0,79.0,80.0
734,57.0,-971.0,228.0,15.0,86.0,69.0
735,64.0,-979.0,233.0,13.0,99.0,64.0
736,68.0,-971.0,231.0,17.0,117.0,63.0
737,64.0,-970.0,231.0,26.0,141.0,60.0
738,56.0,-967.0,237.0,37.0,166.0,56.0
739,48.0,-960.0,229.0,46.0,190.0,50.0
740,51.0,-975.0,209.0,45.0,200.0,56.0
741,60.0,-972.0,216.0,54.0,184.0,81.0
742,11.0,-983.0,250.0,163.0,126.0,248.0
743,76.0,-1187.0,254.0,164.0,253.0,731.0
744,-192.0,-1095.0,246.0,1272.0,345.0,179.0
745,-143.0,-881.0,483.0,1167.0,835.0,47.0
746,-479.0,-524.0,663.0,463.0,-183.0,552.0
747,-443.0,-677.0,761.0,252.0,-660.0,646.0
748,-543.0,-655.0,840.0,172.0,-1108.0,735.0
749,-733.0,-683.0,757.0,54.0,-1652.0,783.0
750,-142.0,-703.0,524.0,-93.0,-2596.0,810.0
751,151.0,-869.0,368.0,-225.0,-3010.0,670.0
752,384.0,-891.0,250.0,-164.0,-3215.0,444.0
753,519.0,-811.0,161.0,-54.0,-3263.0,252.0
754,510.0,-731.0,110.0,-16.0,-3178.0,68.0
755,501.0,-681.0,59.0,-40.0,-3102.0,-87.0
756,466.0,-668.0,20.0,-100.0,-2986.0,-210.0
757,-393.0,-987.0,213.0,-1645.0,-805.0,577.0
758,-346.0,-1060.0,211.0,-1696.0,-920.0,682.0
759,-307.0,-1055.0,215.0,-1700.0,-987.0,809.0
760,-252.0,-1105.0,209.0,-1744.0,-1040.0,860.0
761,-244.0,-1180.0,226.0,-1766.0,-1079.0,868.0
762,-217.0,-1222.0,242.0,-1729.0,-1139.0,896.0
763,418.0,-996.0,679.0,-500.0,-1460.0,283.0
764,-101.0,-1718.0,-341.0,-231.0,72.0,615.0
765,-103.0,-1790.0,-374.0,218.0,101.0,303.0
766,79.0,-1572.0,-188.0,650.0,47.0,1.0
767,229.0,-1223.0,64.0,826.0,100.0,-117.0
768,303.0,-1039.0,196.0,729.0,187.0,-66.0
769,295.0,-950.0,237.0,571.0,250.0,76.0
770,182.0,-904.0,216.0,453.0,275.0,224.0
771,83.0,-904.0,191.0,386.0,268.0,302.0
772,-6.0,-877.0,213.0,349.0,233.0,298.0
773,-8.0,-847.0,226.0,302.0,164.0,254.0
774,52.0,-872.0,191.0,237.0,110.0,208.0
775,12.0,-992.0,197.0,109.0,123.0,192.0
776,69.0,-982.0,203.0,94.0,-143.0,-157.0
777,95.0,-982.0,200.0,90.0,-147.0,-154.0
778,88.0,-994.0,195.0,85.0,-142.0,-134.0
779,105.0,-1013.0,161.0,89.0,-159.0,-103.0
780,97.0,-990.0,190.0,117.0,-176.0,-62.0
781,99.0,-999.0,205.0,125.0,-190.0,-30.0
782,91.0,-1017.0,182.0,125.0,-195.0,-13.0
783,63.0,-1018.0,163.0,148.0,-199.0,1.0
784,79.0,-973.0,200.0,190.0,-229.0,15.0
785,98.0,-950.0,223.0,207.0,-248.0,35.0
786,96.0,-950.0,227.0,199.0,-233.0,48.0
787,88.0,-944.0,238.0,109.0,-125.0,67.0
788,64.0,-944.0,231.0,105.0,83.0,257.0
789,-72.0,-919.0,278.0,108.0,94.0,250.0
790,-58.0,-928.0,279.0,84.0,43.0,162.0
791,22.0,-952.0,249.0,59.0,-1.0,86.0
792,40.0,-940.0,267.0,49.0,-12.0,71.0
793,-31.0,-953.0,272.0,21.0,-3.0,98.0
794,96.0,-938.0,258.0,0.0,-52.0,119.0
795,83.0,-955.0,250.0,-27.0,-19.0,84.0
796,64.0,-957.0,247.0,-45.0,19.0,85.0
797,33.0,-952.0,253.0,-56.0,46.0,85.0
798,40.0,-951.0,250.0,-63.0,46.0,78.0
799,-112.0,-1142.0,269.0,58.0,-50.0,489.0
800,-103.0,-1100.0,273.0,97.0,-87.0,557.0
801,-132.0,-1218.0,287.0,83.0,-110.0,629.0
802,-108.0,-1279.0,263.0,137.0,-156.0,766.0
803,-67.0,-1282.0,246.0,235.0,-208.0,965.0
804,-85.0,-1300.0,239.0,336.0,-217.0,1173.0
805,-248.0,-540.0,647.0,595.0,-1011.0,1394.0
806,253.0,-900.0,-353.0,-148.0,-4464.0,-36.0
807,825.0,-335.0,-1076.0,-1270.0,-4465.0,-889.0
808,747.0,-515.0,-995.0,-1795.0,-3944.0,-665.0
809,741.0,-783.0,-892.0,-2234.0,-3452.0,-411.0
810,539.0,-974.0,-707.0,-2471.0,-2896.0,-209.0
811,313.0,-1080.0,-560.0,-2598.0,-2493.0,-59.0
812,186.0,-1196.0,-439.0,-2725.0,-2328.0,63.0
813,158.0,-1381.0,-289.0,-2823.0,-2346.0,151.0
814,287.0,-1560.0,-124.0,-2803.0,-2489.0,102.0
815,350.0,-1776.0,129.0,-2659.0,-2609.0,-67.0
816,348.0,-1771.0,472.0,-2358.0,-2669.0,-237.0
817,397.0,-1637.0,828.0,-2084.0,-2716.0,-338.0
818,171.0,-1052.0,670.0,1029.0,112.0,-45.0
819,253.0,-931.0,183.0,724.0,82.0,-114.0
820,236.0,-937.0,209.0,164.0,106.0,310.0
821,189.0,-924.0,226.0,171.0,137.0,396.0
822,149.0,-897.0,287.0,166.0,153.0,434.0
823,102.0,-902.0,285.0,124.0,162.0,436.0
824,60.0,-950.0,274.0,81.0,160.0,414.0
825,66.0,-983.0,243.0,56.0,152.0,361.0
826,95.0,-975.0,244.0,50.0,143.0,318.0
827,67.0,-970.0,256.0,42.0,160.0,290.0
828,35.0,-976.0,250.0,29.0,170.0,255.0
829,30.0,-970.0,247.0,27.0,157.0,216.0
830,39.0,-957.0,262.0,31.0,132.0,179.0
831,59.0,-956.0,266.0,7.0,124.0,89.0
832,73.0,-960.0,259.0,2.0,126.0,88.0
833,68.0,-961.0,254.0,-1.0,140.0,92.0
834,48.0,-953.0,265.0,1.0,151.0,96.0
835,33.0,-958.0,261.0,-2.0,152.0,91.0
836,19.0,-950.0,270.0,-5.0,145.0,77.0
837,56.0,-985.0,255.0,131.0,102.0,175.0
838,52.0,-989.0,262.0,146.0,94.0,211.0
839,64.0,-1022.0,243.0,158.0,94.0,241.0
840,66.0,-1019.0,241.0,194.0,108.0,277.0
841,80.0,-1008.0,258.0,235.0,118.0,324.0
842,69.0,-1035.0,261.0,252.0,146.0,375.0
843,96.0,-1089.0,238.0,269.0,173.0,422.0
844,100.0,-1098.0,257.0,314.0,209.0,487.0
845,123.0,-1109.0,271.0,349.0,237.0,564.0
846,-6.0,-1452.0,345.0,900.0,519.0,828.0
847,-19.0,-1405.0,334.0,1073.0,507.0,772.0
848,-76.0,-1377.0,372.0,1150.0,475.0,607.0
849,-372.0,-1436.0,444.0,1163.0,453.0,199.0
850,-136.0,-1510.0,353.0,1276.0,211.0,-192.0
851,-451.0,-1592.0,377.0,1490.0,229.0,-99.0
852,-350.0,-1358.0,308.0,1751.0,108.0,69.0
853,-314.0,-1335.0,290.0,1791.0,12.0,53.0
854,-258.0,-1342.0,271.0,1815.0,-93.0,24.0
855,1147.0,81.0,-272.0,943.0,2878.0,-558.0
856,356.0,-727.0,-268.0,-1258.0,-1090.0,108.0
857,498.0,-651.0,-328.0,-1176.0,-1110.0,-118.0
858,538.0,-588.0,-369.0,-1173.0,-987.0,-258.0
859,507.0,-533.0,-386.0,-1240.0,-806.0,-321.0
860,400.0,-494.0,-368.0,-1375.0,-617.0,-386.0
861,289.0,-515.0,-324.0,-1584.0,-491.0,-461.0
862,167.0,-576.0,-268.0,-1782.0,-439.0,-508.0
863,94.0,-661.0,-215.0,-1943.0,-476.0,-557.0
864,24.0,-776.0,-167.0,-2059.0,-559.0,-635.0
865,-40.0,-840.0,-103.0,-2116.0,-671.0,-723.0
866,-90.0,-921.0,-42.0,-2177.0,-788.0,-763.0
867,-59.0,-986.0,-5.0,-2231.0,-881.0,-722.0
868,-40.0,-1015.0,30.0,-2279.0,-909.0,-655.0
869,37.0,-1052.0,64.0,-2344.0,-930.0,-615.0
870,325.0,-1070.0,84.0,-2412.0,-950.0,-601.0
871,-437.0,-1542.0,639.0,-686.0,845.0,-1871.0
872,-665.0,-1369.0,671.0,-506.0,849.0,-1801.0
873,-951.0,-1354.0,676.0,-527.0,827.0,-1686.0
874,-963.0,-1460.0,654.0,-552.0,707.0,-1487.0
875,-615.0,-1399.0,630.0,-383.0,661.0,-1215.0
876,-354.0,-988.0,668.0,-120.0,964.0,-975.0
877,-456.0,-465.0,733.0,-153.0,1477.0,-899.0
878,-796.0,-336.0,750.0,-658.0,1825.0,-825.0
879,-933.0,-573.0,718.0,-1204.0,1720.0,-550.0
880,-503.0,-800.0,704.0,-1393.0,1256.0,-219.0
881,-244.0,-1204.0,739.0,-1363.0,957.0,-193.0
882,252.0,-953.0,207.0,443.0,40.0,250.0
883,137.0,-984.0,111.0,131.0,125.0,-18.0
884,137.0,-983.0,98.0,181.0,143.0,-21.0
885,115.0,-984.0,104.0,208.0,149.0,-13.0
886,135.0,-980.0,101.0,226.0,126.0,-1.0
887,124.0,-981.0,119.0,230.0,110.0,27.0
888,124.0,-977.0,139.0,219.0,87.0,47.0
889,111.0,-976.0,153.0,195.0,72.0,63.0
890,119.0,-981.0,146.0,166.0,58.0,72.0
891,129.0,-981.0,151.0,146.0,51.0,81.0
892,139.0,-972.0,161.0,127.0,55.0,89.0
893,132.0,-999.0,134.0,83.0,82.0,115.0
894,74.0,-981.0,165.0,74.0,104.0,147.0
895,72.0,-980.0,173.0,73.0,102.0,157.0
896,73.0,-982.0,173.0,69.0,103.0,165.0
897,72.0,-979.0,176.0,65.0,107.0,170.0
898,55.0,-979.0,179.0,62.0,118.0,171.0
899,60.0,-988.0,169.0,60.0,123.0,164.0
900,66.0,-983.0,171.0,68.0,126.0,164.0
901,51.0,-981.0,177.0,74.0,135.0,170.0
902,35.0,-979.0,182.0,79.0,136.0,169.0
903,40.0,-977.0,187.0,81.0,129.0,159.0
904,50.0,-980.0,185.0,84.0,126.0,153.0
905,101.0,-1136.0,184.0,341.0,174.0,650.0
906,-56.0,-1532.0,116.0,2061.0,124.0,524.0
907,68.0,-1578.0,82.0,2117.0,90.0,514.0
908,67.0,-1519.0,41.0,2227.0,146.0,473.0
909,184.0,-1462.0,54.0,2325.0,169.0,425.0
910,196.0,-1348.0,69.0,2416.0,246.0,349.0
911,215.0,-1128.0,118.0,2466.0,412.0,251.0
912,113.0,-785.0,300.0,2414.0,504.0,219.0
913,58.0,-739.0,426.0,2102.0,541.0,129.0
914,26.0,-719.0,362.0,1831.0,502.0,168.0
915,46.0,-641.0,243.0,1607.0,424.0,226.0
916,58.0,-506.0,-260.0,-1359.0,-321.0,-460.0
917,212.0,-540.0,-251.0,-1502.0,-366.0,-480.0
918,320.0,-617.0,-230.0,-1651.0,-264.0,-468.0
919,328.0,-708.0,-189.0,-1773.0,-51.0,-471.0
920,269.0,-758.0,-138.0,-1859.0,176.0,-512.0
921,190.0,-772.0,-89.0,-1948.0,351.0,-559.0
922,165.0,-822.0,-53.0,-2079.0,437.0,-597.0
923,189.0,-875.0,-14.0,-2218.0,462.0,-638.0
924,210.0,-992.0,39.0,-2361.0,463.0,-700.0
925,163.0,-1119.0,104.0,-2453.0,453.0,-784.0
926,-8.0,-1229.0,185.0,-2481.0,424.0,-875.0
927,40.0,-1136.0,500.0,-1364.0,1519.0,-524.0
928,-205.0,-925.0,193.0,193.0,-246.0,-90.0
929,-182.0,-956.0,207.0,253.0,-264.0,-47.0
930,-208.0,-925.0,253.0,343.0,-270.0,-29.0
931,-230.0,-1264.0,302.0,393.0,-312.0,41.0
932,-349.0,-1201.0,353.0,848.0,-439.0,504.0
933,-223.0,-593.0,386.0,1288.0,-672.0,832.0
934,-215.0,-873.0,209.0,946.0,-616.0,688.0
935,-67.0,-980.0,-63.0,870.0,-581.0,566.0
936,11.0,-1334.0,-462.0,821.0,-446.0,441.0
937,141.0,-1781.0,-902.0,1019.0,-350.0,245.0
938,210.0,-1957.0,-1177.0,1515.0,-293.0,91.0
939,177.0,-1162.0,-316.0,2169.0,-158.0,-220.0
940,117.0,-961.0,156.0,243.0,52.0,-56.0
941,123.0,-976.0,146.0,216.0,44.0,-52.0
942,126.0,-980.0,143.0,205.0,30.0,-44.0
943,137.0,-979.0,147.0,200.0,21.0,-33.0
944,158.0,-967.0,156.0,196.0,15.0,-18.0
945,155.0,-960.0,166.0,180.0,23.0,11.0
946,143.0,-960.0,174.0,158.0,36.0,36.0
947,136.0,-971.0,157.0,128.0,55.0,46.0
948,116.0,-988.0,143.0,102.0,79.0,48.0
949,101.0,-974.0,160.0,89.0,89.0,39.0
950,106.0,-948.0,199.0,69.0,86.0,20.0
951,109.0,-970.0,172.0,28.0,95.0,5.0
952,108.0,-995.0,137.0,114.0,154.0,87.0
953,108.0,-988.0,155.0,136.0,148.0,95.0
954,114.0,-989.0,153.0,147.0,147.0,103.0
955,100.0,-982.0,163.0,158.0,150.0,113.0
956,90.0,-982.0,173.0,164.0,145.0,117.0
957,90.0,-985.0,165.0,161.0,138.0,113.0
958,93.0,-980.0,170.0,165.0,135.0,109.0
959,96.0,-968.0,185.0,170.0,130.0,109.0
960,87.0,-948.0,194.0,164.0,134.0,115.0
961,92.0,-956.0,191.0,139.0,124.0,127.0
962,95.0,-967.0,185.0,117.0,107.0,144.0
963,60.0,-979.0,205.0,173.0,180.0,179.0
964,121.0,-1280.0,197.0,572.0,295.0,575.0
965,125.0,-1329.0,230.0,628.0,329.0,666.0
966,223.0,-1385.0,241.0,679.0,350.0,788.0
967,209.0,-1545.0,272.0,808.0,500.0,964.0
968,-47.0,-1522.0,327.0,1218.0,760.0,1040.0
969,-193.0,-1461.0,375.0,1560.0,754.0,996.0
970,-267.0,-1681.0,400.0,1685.0,579.0,861.0
971,-318.0,-1762.0,414.0,1973.0,465.0,804.0
972,-338.0,-1693.0,432.0,2205.0,320.0,664.0
973,-179.0,-1735.0,364.0,2187.0,154.0,385.0
974,-257.0,-1959.0,266.0,2153.0,110.0,168.0
975,154.0,486.0,132.0,817.0,257.0,117.0
976,-29.0,-530.0,-80.0,-2016.0,-65.0,-297.0
977,34.0,-621.0,-69.0,-2147.0,-203.0,-363.0
978,90.0,-740.0,-51.0,-2254.0,-257.0,-428.0
979,29.0,-827.0,-4.0,-2306.0,-206.0,-486.0
980,-74.0,-891.0,45.0,-2326.0,-159.0,-528.0
981,-193.0,-933.0,75.0,-2329.0,-153.0,-539.0
982,-168.0,-981.0,75.0,-2337.0,-226.0,-512.0
983,-119.0,-1035.0,82.0,-2347.0,-274.0,-481.0
984,-83.0,-1030.0,120.0,-2360.0,-279.0,-496.0
985,-44.0,-1066.0,149.0,-2417.0,-288.0,-527.0
986,-60.0,-1100.0,183.0,-2480.0,-288.0,-555.0
987,-175.0,-1421.0,548.0,-1871.0,-1579.0,-392.0
988,-224.0,-855.0,665.0,169.0,-1957.0,-442.0
989,-83.0,-868.0,621.0,200.0,-2185.0,-350.0
990,-40.0,-940.0,592.0,260.0,-2284.0,-296.0
991,3.0,-955.0,551.0,398.0,-2347.0,-277.0
992,94.0,-922.0,507.0,547.0,-2385.0,-289.0
993,173.0,-881.0,480.0,656.0,-2359.0,-329.0
994,121.0,-1072.0,512.0,736.0,-2256.0,-321.0
995,61.0,-1040.0,536.0,1069.0,-2213.0,-84.0
996,254.0,-592.0,509.0,1358.0,-2215.0,149.0
997,247.0,-648.0,442.0,1100.0,-1958.0,201.0
998,244.0,-725.0,268.0,917.0,-1668.0,239.0
999,42.0,-997.0,32.0,881.0,-1244.0,293.0
1000,-435.0,-1482.0,-353.0,1055.0,-881.0,193.0
1001,-588.0,-1908.0,-806.0,1354.0,-1019.0,-162.0
1002,-69.0,-1959.0,-1178.0,1773.0,-1342.0,-637.0
1003,78.0,-925.0,228.0,185.0,77.0,-348.0
1004,-41.0,-972.0,224.0,-13.0,100.0,-101.0
1005,53.0,-983.0,213.0,69.0,-35.0,-202.0
1006,68.0,-985.0,216.0,79.0,-44.0,-207.0
1007,85.0,-988.0,208.0,86.0,-48.0,-200.0
1008,93.0,-1002.0,195.0,98.0,-50.0,-184.0
1009,83.0,-986.0,207.0,117.0,-49.0,-165.0
1010,75.0,-977.0,219.0,128.0,-54.0,-152.0
1011,95.0,-983.0,216.0,131.0,-67.0,-139.0
1012,93.0,-987.0,212.0,134.0,-73.0,-120.0
1013,76.0,-978.0,214.0,141.0,-72.0,-106.0
1014,75.0,-984.0,216.0,150.0,-73.0,-101.0
1015,82.0,-961.0,234.0,159.0,-86.0,-99.0
1016,101.0,-953.0,242.0,-12.0,1.0,-117.0
1017,118.0,-976.0,220.0,-36.0,-41.0,-58.0
1018,95.0,-966.0,232.0,-20.0,-43.0,-50.0
1019,83.0,-968.0,237.0,-10.0,-52.0,-53.0
1020,91.0,-970.0,233.0,-1.0,-70.0,-58.0
1021,112.0,-972.0,225.0,10.0,-87.0,-58.0
1022,112.0,-968.0,227.0,21.0,-88.0,-54.0
1023,103.0,-971.0,231.0,33.0,-92.0,-51.0
1024,116.0,-965.0,230.0,47.0,-103.0,-45.0
1025,114.0,-984.0,219.0,62.0,-104.0,-36.0
1026,135.0,-975.0,225.0,85.0,-110.0,-25.0
1027,124.0,-974.0,231.0,100.0,-99.0,-14.0
1028,131.0,-971.0,234.0,112.0,-96.0,-4.0
1029,115.0,-954.0,263.0,6.0,-24.0,-33.0
1030,132.0,-950.0,256.0,-1.0,-19.0,-43.0
1031,140.0,-953.0,251.0,-8.0,-5.0,-43.0
1032,145.0,-952.0,248.0,-12.0,8.0,-38.0
1033,140.0,-956.0,251.0,-15.0,21.0,-29.0
1034,149.0,-954.0,252.0,-20.0,27.0,-21.0
1035,132.0,-948.0,254.0,-24.0,42.0,-15.0
1036,144.0,-956.0,249.0,-30.0,49.0,-13.0
1037,128.0,-965.0,250.0,-34.0,63.0,-9.0
1038,120.0,-954.0,258.0,-34.0,67.0,-5.0
1039,120.0,-955.0,256.0,-43.0,69.0,-5.0
1040,120.0,-961.0,255.0,-52.0,72.0,-8.0
1041,117.0,-966.0,252.0,-59.0,74.0,-10.0
1042,118.0,-968.0,254.0,-65.0,74.0,-16.0
1043,109.0,-994.0,247.0,-74.0,77.0,-21.0
1044,-6.0,-1081.0,258.0,-39.0,-138.0,3.0
1045,-307.0,-1072.0,388.0,265.0,-810.0,752.0
1046,328.0,-1105.0,-98.0,214.0,-3482.0,1150.0
1047,306.0,-1083.0,-221.0,273.0,-3521.0,964.0
1048,257.0,-1013.0,-313.0,354.0,-3582.0,816.0
1049,234.0,-985.0,-390.0,396.0,-3679.0,666.0
1050,234.0,-966.0,-460.0,441.0,-3776.0,536.0
1051,243.0,-908.0,-511.0,497.0,-3851.0,435.0
1052,247.0,-850.0,-544.0,512.0,-3899.0,348.0
1053,226.0,-817.0,-559.0,478.0,-3919.0,280.0
1054,169.0,-810.0,-556.0,408.0,-3919.0,258.0
1055,150.0,-829.0,-535.0,321.0,-3931.0,296.0
1056,173.0,-837.0,-498.0,241.0,-3933.0,378.0
1057,178.0,-1044.0,-10.0,-362.0,-2628.0,776.0
1058,137.0,-1045.0,1.0,-347.0,-2604.0,755.0
1059,105.0,-1038.0,8.0,-334.0,-2599.0,730.0
1060,117.0,-1036.0,2.0,-321.0,-2603.0,737.0
1061,111.0,-1018.0,10.0,-312.0,-2584.0,755.0
1062,67.0,-1012.0,19.0,-315.0,-2555.0,753.0
1063,27.0,-985.0,29.0,-314.0,-2544.0,748.0
1064,-10.0,-980.0,35.0,-339.0,-2560.0,751.0
1065,-60.0,-1007.0,48.0,-376.0,-2596.0,759.0
1066,-74.0,-1037.0,60.0,-391.0,-2671.0,786.0
1067,534.0,-950.0,278.0,683.0,-832.0,-155.0
1068,-299.0,-1228.0,256.0,-82.0,116.0,125.0
1069,-133.0,-1245.0,182.0,-67.0,-45.0,-54.0
1070,14.0,-1181.0,217.0,-12.0,-111.0,-140.0
1071,71.0,-1100.0,261.0,11.0,-116.0,-148.0
1072,39.0,-1052.0,260.0,-18.0,-83.0,-156.0
1073,-10.0,-1023.0,261.0,-45.0,-66.0,-192.0
1074,-42.0,-983.0,286.0,-61.0,-76.0,-256.0
1075,-33.0,-965.0,250.0,-84.0,-107.0,-330.0
1076,-18.0,-963.0,244.0,-83.0,-136.0,-374.0
1077,66.0,-959.0,259.0,-64.0,-185.0,-384.0
1078,138.0,-978.0,231.0,-65.0,-193.0,-349.0
1079,96.0,-989.0,214.0,-75.0,-89.0,-201.0
1080,108.0,-956.0,250.0,44.0,79.0,42.0
1081,97.0,-954.0,230.0,-25.0,130.0,47.0
1082,38.0,-928.0,261.0,-14.0,127.0,51.0
1083,55.0,-928.0,265.0,-21.0,102.0,23.0
1084,62.0,-939.0,260.0,-35.0,88.0,-4.0
1085,87.0,-951.0,247.0,-43.0,75.0,-19.0
1086,79.0,-956.0,242.0,-41.0,71.0,-20.0
1087,69.0,-966.0,243.0,-38.0,68.0,-26.0
1088,86.0,-974.0,235.0,-38.0,59.0,-42.0
1089,105.0,-983.0,233.0,-32.0,54.0,-46.0
1090,126.0,-1009.0,214.0,-25.0,59.0,-41.0
1091,105.0,-985.0,225.0,0.0,77.0,-27.0
1092,99.0,-978.0,222.0,18.0,84.0,-17.0
1093,73.0,-955.0,244.0,34.0,91.0,-16.0
1094,79.0,-948.0,255.0,35.0,88.0,-26.0
1095,83.0,-954.0,250.0,20.0,89.0,-38.0
1096,100.0,-996.0,218.0,22.0,121.0,-13.0
1097,91.0,-962.0,241.0,-103.0,101.0,-40.0
1098,98.0,-974.0,234.0,-99.0,105.0,-40.0
1099,104.0,-976.0,226.0,-87.0,111.0,-38.0
1100,99.0,-968.0,234.0,-68.0,111.0,-28.0
1101,101.0,-965.0,240.0,-52.0,111.0,-18.0
1102,111.0,-975.0,233.0,-40.0,112.0,-4.0
1103,101.0,-997.0,213.0,-18.0,122.0,12.0
1104,88.0,-1001.0,212.0,24.0,127.0,20.0
1105,85.0,-992.0,223.0,68.0,121.0,21.0
1106,89.0,-986.0,233.0,102.0,112.0,21.0
1107,104.0,-1575.0,295.0,1189.0,120.0,199.0
1108,236.0,-1592.0,252.0,1405.0,143.0,-74.0
1109,180.0,-1615.0,254.0,1573.0,213.0,-20.0
1110,193.0,-1523.0,233.0,1755.0,201.0,-40.0
1111,267.0,-1552.0,204.0,1849.0,214.0,-66.0
1112,300.0,-1535.0,193.0,1987.0,289.0,-89.0
1113,359.0,-1507.0,180.0,2095.0,358.0,-150.0
1114,402.0,-1418.0,130.0,2193.0,439.0,-209.0
1115,486.0,-1294.0,57.0,2264.0,531.0,-226.0
1116,515.0,-1103.0,-16.0,2318.0,703.0,-238.0
1117,290.0,-843.0,-577.0,-2940.0,586.0,-104.0
1118,195.0,-1439.0,322.0,-2504.0,-379.0,-477.0
1119,-75.0,-1411.0,533.0,-1307.0,-385.0,-121.0
1120,49.0,-1273.0,540.0,-1095.0,-391.0,-90.0
1121,214.0,-1203.0,529.0,-977.0,-308.0,-64.0
1122,337.0,-1142.0,535.0,-876.0,-120.0,-60.0
1123,345.0,-1090.0,546.0,-779.0,151.0,-107.0
1124,217.0,-1062.0,555.0,-685.0,445.0,-168.0
1125,-33.0,-1057.0,549.0,-580.0,679.0,-198.0
1126,-232.0,-1033.0,520.0,-445.0,745.0,-181.0
1127,-375.0,-1010.0,457.0,-306.0,669.0,-121.0
1128,-369.0,-965.0,357.0,-171.0,463.0,-52.0
1129,-288.0,-929.0,268.0,-75.0,206.0,-5.0
1130,126.0,-846.0,-16.0,374.0,-398.0,472.0
1131,57.0,-920.0,-171.0,250.0,-150.0,377.0
1132,-51.0,-1110.0,-390.0,173.0,46.0,282.0
1133,-139.0,-1379.0,-676.0,289.0,121.0,217.0
1134,35.0,-1641.0,-968.0,679.0,79.0,99.0
1135,90.0,-1776.0,-1083.0,1324.0,147.0,63.0
1136,61.0,-1664.0,-944.0,2027.0,113.0,68.0
1137,-23.0,-1284.0,-548.0,2503.0,32.0,-1.0
1138,-133.0,-724.0,-79.0,2508.0,2.0,-141.0
1139,18.0,-744.0,194.0,1969.0,-51.0,-220.0
1140,253.0,-1024.0,319.0,1592.0,-15.0,-208.0
1141,117.0,-924.0,167.0,553.0,-14.0,-57.0
1142,97.0,-923.0,167.0,482.0,-20.0,-14.0
1143,73.0,-939.0,167.0,418.0,-31.0,12.0
1144,69.0,-961.0,151.0,369.0,-33.0,10.0
1145,110.0,-968.0,145.0,354.0,-37.0,-8.0
1146,81.0,-965.0,163.0,354.0,0.0,-24.0
1147,32.0,-959.0,145.0,350.0,50.0,-60.0
1148,72.0,-974.0,133.0,334.0,63.0,-93.0
1149,113.0,-968.0,153.0,312.0,56.0,-90.0
1150,127.0,-966.0,174.0,278.0,43.0,-53.0
1151,85.0,-969.0,197.0,80.0,44.0,8.0
1152,85.0,-989.0,171.0,28.0,145.0,-41.0
1153,91.0,-967.0,200.0,38.0,142.0,-34.0
1154,94.0,-968.0,211.0,33.0,157.0,-30.0
1155,80.0,-970.0,205.0,20.0,185.0,-38.0
1156,81.0,-967.0,201.0,17.0,206.0,-49.0
1157,67.0,-969.0,195.0,11.0,229.0,-55.0
1158,73.0,-969.0,198.0,8.0,232.0,-59.0
1159,60.0,-970.0,191.0,5.0,232.0,-55.0
1160,85.0,-972.0,195.0,2.0,214.0,-47.0
1161,81.0,-978.0,199.0,1.0,207.0,-30.0
1162,80.0,-981.0,193.0,2.0,211.0,-22.0
1163,64.0,-978.0,208.0,124.0,174.0,71.0
1164,70.0,-985.0,229.0,210.0,142.0,197.0
1165,77.0,-987.0,219.0,213.0,157.0,224.0
1166,56.0,-992.0,229.0,221.0,176.0,254.0
1167,56.0,-1006.0,229.0,225.0,189.0,278.0
1168,10.0,-1020.0,238.0,232.0,202.0,299.0
1169,25.0,-1096.0,238.0,226.0,177.0,313.0
1170,90.0,-1157.0,205.0,249.0,149.0,342.0
1171,188.0,-1154.0,221.0,319.0,146.0,422.0
1172,204.0,-1186.0,222.0,366.0,202.0,550.0
1173,151.0,-1224.0,249.0,453.0,313.0,656.0
1174,84.0,-1267.0,292.0,593.0,428.0,706.0
1175,-196.0,-1397.0,227.0,1961.0,-59.0,163.0
1176,74.0,-579.0,369.0,2157.0,-208.0,192.0
1177,68.0,-378.0,278.0,1956.0,-162.0,179.0
1178,2.0,-96.0,235.0,1648.0,-108.0,211.0
1179,135.0,-133.0,193.0,1076.0,-157.0,314.0
1180,415.0,-326.0,-246.0,502.0,-106.0,383.0
1181,-19.0,-116.0,-200.0,69.0,297.0,477.0
1182,299.0,-811.0,-270.0,-603.0,182.0,569.0
1183,214.0,-595.0,-207.0,-405.0,333.0,470.0
1184,79.0,-334.0,-186.0,-391.0,474.0,349.0
1185,122.0,-1192.0,221.0,-3078.0,73.0,-492.0
1186,53.0,-1284.0,299.0,-3077.0,-62.0,-572.0
1187,-20.0,-1325.0,378.0,-3041.0,-243.0,-647.0
1188,-14.0,-1395.0,421.0,-3014.0,-482.0,-717.0
1189,19.0,-1448.0,447.0,-2958.0,-710.0,-774.0
1190,68.0,-1468.0,459.0,-2874.0,-886.0,-801.0
1191,133.0,-1449.0,458.0,-2796.0,-1001.0,-803.0
1192,203.0,-1446.0,435.0,-2762.0,-1045.0,-792.0
1193,255.0,-1479.0,421.0,-2761.0,-1021.0,-795.0
1194,283.0,-1533.0,429.0,-2741.0,-952.0,-807.0
1195,253.0,-1562.0,454.0,-2656.0,-825.0,-818.0
1196,-392.0,-1172.0,932.0,-1119.0,1429.0,-711.0
1197,313.0,-980.0,131.0,1166.0,-38.0,-38.0
1198,179.0,-1039.0,156.0,997.0,-105.0,179.0
1199,-10.0,-869.0,314.0,927.0,-109.0,198.0
1200,16.0,-935.0,219.0,681.0,-99.0,43.0
1201,100.0,-893.0,227.0,533.0,-72.0,-125.0
1202,173.0,-839.0,289.0,414.0,-5.0,-231.0
1203,139.0,-887.0,244.0,245.0,90.0,-272.0
1204,171.0,-944.0,168.0,128.0,92.0,-277.0
1205,198.0,-956.0,147.0,100.0,56.0,-245.0
1206,192.0,-984.0,113.0,92.0,41.0,-201.0
1207,173.0,-971.0,131.0,109.0,28.0,-169.0
1208,225.0,-956.0,130.0,76.0,-11.0,-102.0
1209,96.0,-966.0,190.0,89.0,110.0,72.0
1210,104.0,-981.0,183.0,62.0,118.0,32.0
1211,112.0,-984.0,170.0,42.0,124.0,-4.0
1212,111.0,-977.0,175.0,36.0,126.0,-26.0
1213,113.0,-975.0,168.0,29.0,126.0,-37.0
1214,120.0,-995.0,169.0,28.0,116.0,-42.0
1215,146.0,-1016.0,123.0,26.0,107.0,-50.0
1216,131.0,-988.0,153.0,70.0,102.0,-35.0
1217,136.0,-958.0,191.0,99.0,92.0,-26.0
1218,151.0,-964.0,184.0,89.0,92.0,-21.0
1219,131.0,-972.0,173.0,76.0,114.0,-14.0
1220,140.0,-955.0,193.0,82.0,122.0,-12.0
1221,127.0,-965.0,203.0,68.0,141.0,-8.0
1222,144.0,-994.0,168.0,38.0,152.0,-12.0
1223,124.0,-985.0,189.0,103.0,114.0,45.0
1224,117.0,-970.0,202.0,116.0,128.0,42.0
1225,125.0,-979.0,205.0,112.0,131.0,44.0
1226,121.0,-980.0,199.0,113.0,140.0,46.0
1227,113.0,-961.0,211.0,118.0,147.0,49.0
1228,102.0,-962.0,207.0,112.0,152.0,49.0
1229,97.0,-961.0,208.0,105.0,148.0,47.0
1230,106.0,-954.0,215.0,100.0,136.0,49.0
1231,106.0,-968.0,211.0,91.0,131.0,55.0
1232,89.0,-955.0,226.0,66.0,161.0,53.0
1233,103.0,-964.0,226.0,56.0,162.0,47.0
1234,105.0,-971.0,217.0,50.0,171.0,46.0
1235,105.0,-973.0,214.0,54.0,174.0,53.0
1236,103.0,-969.0,220.0,61.0,176.0,61.0
1237,103.0,-964.0,224.0,65.0,176.0,70.0
1238,85.0,-964.0,224.0,65.0,184.0,77.0
1239,75.0,-965.0,229.0,66.0,184.0,74.0
1240,85.0,-1015.0,250.0,264.0,213.0,273.0
1241,-52.0,-1141.0,260.0,2017.0,17.0,-123.0
1242,77.0,-243.0,424.0,1369.0,320.0,54.0
1243,117.0,-347.0,290.0,899.0,266.0,148.0
1244,354.0,-561.0,85.0,499.0,219.0,251.0
1245,434.0,-502.0,-324.0,309.0,409.0,221.0
1246,124.0,-311.0,-260.0,1.0,732.0,188.0
1247,228.0,-758.0,-259.0,-518.0,658.0,256.0
1248,215.0,-624.0,-221.0,-459.0,676.0,178.0
1249,129.0,-505.0,-202.0,-523.0,741.0,85.0
1250,85.0,-619.0,-232.0,-758.0,722.0,73.0
1251,32.0,-559.0,-227.0,-834.0,659.0,82.0
1252,4.0,-542.0,-232.0,-971.0,547.0,64.0
1253,180.0,-1141.0,233.0,-2409.0,-443.0,-355.0
1254,112.0,-988.0,607.0,-826.0,-76.0,-572.0
1255,174.0,-828.0,681.0,-855.0,30.0,-670.0
1256,149.0,-543.0,773.0,-975.0,238.0,-682.0
1257,158.0,-687.0,761.0,-1349.0,453.0,-545.0
1258,169.0,-957.0,782.0,-1543.0,707.0,-448.0
1259,36.0,-1160.0,858.0,-1411.0,1025.0,-450.0
1260,-138.0,-1184.0,997.0,-1039.0,1264.0,-498.0
1261,-393.0,-1219.0,1138.0,-593.0,1408.0,-483.0
1262,-629.0,-1150.0,1263.0,-62.0,1392.0,-330.0
1263,-749.0,-1200.0,1318.0,481.0,1239.0,1.0
1264,115.0,-792.0,388.0,1103.0,57.0,280.0
1265,200.0,-827.0,318.0,833.0,48.0,261.0
1266,187.0,-880.0,342.0,616.0,90.0,308.0
1267,126.0,-863.0,373.0,481.0,132.0,345.0
1268,107.0,-917.0,307.0,261.0,138.0,337.0
1269,112.0,-987.0,187.0,-35.0,91.0,283.0
1270,76.0,-1000.0,169.0,24.0,109.0,220.0
1271,53.0,-971.0,205.0,136.0,91.0,146.0
1272,74.0,-953.0,211.0,172.0,59.0,88.0
1273,72.0,-952.0,225.0,162.0,45.0,49.0
1274,110.0,-947.0,223.0,143.0,31.0,20.0
1275,136.0,-948.0,212.0,130.0,33.0,16.0
1276,154.0,-963.0,208.0,115.0,32.0,34.0
1277,136.0,-987.0,196.0,-56.0,60.0,44.0
1278,124.0,-985.0,189.0,-38.0,82.0,41.0
1279,113.0,-978.0,194.0,12.0,101.0,38.0
1280,95.0,-964.0,217.0,57.0,97.0,32.0
1281,75.0,-969.0,218.0,78.0,87.0,18.0
1282,77.0,-979.0,215.0,96.0,71.0,-9.0
1283,75.0,-987.0,219.0,111.0,59.0,-37.0
1284,102.0,-983.0,213.0,124.0,44.0,-59.0
1285,126.0,-983.0,210.0,142.0,36.0,-57.0
1286,136.0,-937.0,256.0,156.0,-16.0,39.0
1287,113.0,-938.0,265.0,110.0,92.0,-22.0
1288,124.0,-938.0,271.0,74.0,137.0,13.0
1289,112.0,-935.0,277.0,66.0,152.0,21.0
1290,108.0,-950.0,282.0,55.0,164.0,23.0
1291,128.0,-995.0,240.0,47.0,181.0,19.0
1292,110.0,-971.0,259.0,74.0,200.0,30.0
1293,126.0,-980.0,254.0,87.0,198.0,41.0
1294,123.0,-961.0,273.0,103.0,204.0,58.0
1295,100.0,-972.0,276.0,110.0,216.0,74.0
1296,98.0,-969.0,268.0,116.0,223.0,73.0
1297,67.0,-969.0,291.0,112.0,298.0,196.0
1298,60.0,-975.0,298.0,115.0,300.0,213.0
1299,59.0,-1002.0,282.0,115.0,302.0,223.0
1300,64.0,-992.0,297.0,140.0,305.0,232.0
1301,63.0,-1008.0,295.0,153.0,315.0,247.0
1302,50.0,-1031.0,292.0,167.0,332.0,258.0
1303,37.0,-1028.0,298.0,192.0,337.0,263.0
1304,37.0,-1031.0,303.0,207.0,332.0,264.0
1305,56.0,-1046.0,304.0,215.0,331.0,270.0
1306,65.0,-1058.0,304.0,223.0,344.0,287.0
1307,60.0,-1065.0,313.0,224.0,348.0,319.0
1308,345.0,-883.0,272.0,500.0,1246.0,-350.0
1309,476.0,-555.0,152.0,-274.0,2327.0,-947.0
1310,225.0,-1089.0,114.0,-926.0,3553.0,-1336.0
1311,130.0,-1111.0,74.0,-864.0,3745.0,-1348.0
1312,63.0,-1109.0,31.0,-795.0,3895.0,-1333.0
1313,9.0,-1113.0,-20.0,-732.0,4018.0,-1294.0
1314,-85.0,-1125.0,-57.0,-671.0,4128.0,-1264.0
1315,-166.0,-1119.0,-82.0,-602.0,4177.0,-1238.0
1316,-226.0,-1123.0,-103.0,-541.0,4165.0,-1189.0
1317,-296.0,-1121.0,-105.0,-479.0,4106.0,-1132.0
1318,-366.0,-1104.0,-74.0,-409.0,3987.0,-1074.0
1319,-346.0,-1150.0,-97.0,-340.0,3822.0,-1006.0
1320,-330.0,-1079.0,-122.0,-222.0,3662.0,-938.0
1321,-287.0,-1030.0,-192.0,-204.0,3365.0,-856.0
1322,-71.0,-1101.0,94.0,-245.0,926.0,-394.0
1323,-26.0,-1081.0,17.0,-103.0,676.0,-408.0
1324,18.0,-1070.0,-67.0,46.0,439.0,-456.0
1325,17.0,-1061.0,-165.0,194.0,221.0,-528.0
1326,67.0,-1055.0,-268.0,350.0,-24.0,-636.0
1327,227.0,-1084.0,-283.0,543.0,-191.0,-721.0
1328,338.0,-1063.0,-148.0,796.0,-132.0,-692.0
1329,287.0,-973.0,68.0,978.0,49.0,-544.0
1330,201.0,-860.0,255.0,975.0,140.0,-377.0
1331,50.0,-1025.0,186.0,62.0,-131.0,-78.0
1332,187.0,-967.0,185.0,-85.0,120.0,-296.0
1333,209.0,-956.0,173.0,-169.0,206.0,-258.0
1334,238.0,-939.0,172.0,-221.0,289.0,-281.0
1335,237.0,-960.0,131.0,-118.0,337.0,-102.0
1336,226.0,-958.0,136.0,-63.0,325.0,8.0
1337,227.0,-947.0,151.0,-61.0,312.0,8.0
1338,243.0,-948.0,146.0,-74.0,297.0,7.0
1339,259.0,-951.0,136.0,-89.0,307.0,8.0
1340,244.0,-953.0,144.0,-95.0,334.0,16.0
1341,251.0,-957.0,133.0,-100.0,346.0,21.0
1342,237.0,-967.0,117.0,-98.0,355.0,34.0
1343,214.0,-964.0,136.0,-89.0,357.0,36.0
1344,223.0,-960.0,138.0,-88.0,336.0,31.0
1345,199.0,-967.0,133.0,-88.0,334.0,31.0
1346,210.0,-967.0,139.0,-81.0,318.0,23.0
1347,243.0,-958.0,129.0,-49.0,260.0,21.0
1348,215.0,-961.0,193.0,-99.0,232.0,23.0
1349,219.0,-965.0,181.0,-139.0,250.0,22.0
1350,229.0,-996.0,168.0,-179.0,299.0,6.0
1351,317.0,-930.0,141.0,-200.0,336.0,-31.0
1352,302.0,-876.0,194.0,-240.0,414.0,-35.0
1353,315.0,-832.0,173.0,-325.0,533.0,-56.0
1354,330.0,-818.0,173.0,-431.0,633.0,-76.0
1355,477.0,-735.0,205.0,-528.0,682.0,-50.0
1356,498.0,-757.0,281.0,-675.0,842.0,41.0
1357,780.0,-676.0,251.0,-810.0,933.0,187.0
1358,696.0,-751.0,229.0,-1011.0,1300.0,364.0
1359,683.0,-811.0,238.0,-1154.0,1614.0,489.0
1360,696.0,-881.0,351.0,-1232.0,1925.0,559.0
1361,717.0,-905.0,471.0,-1220.0,2288.0,627.0
1362,717.0,-940.0,530.0,-1212.0,2657.0,664.0
1363,209.0,-933.0,-17.0,561.0,2963.0,-476.0
1364,178.0,-917.0,-71.0,547.0,2974.0,-436.0
1365,128.0,-907.0,-115.0,531.0,2980.0,-387.0
1366,88.0,-903.0,-155.0,512.0,2966.0,-351.0
1367,112.0,-859.0,-181.0,507.0,2925.0,-288.0
1368,64.0,-920.0,-252.0,478.0,2929.0,-247.0
1369,52.0,-872.0,-328.0,498.0,2924.0,-248.0
1370,-44.0,-836.0,-401.0,491.0,2916.0,-235.0
1371,-61.0,-1251.0,139.0,-343.0,-191.0,-236.0
1372,230.0,-1188.0,160.0,-198.0,-318.0,-336.0
1373,405.0,-1170.0,111.0,-139.0,-300.0,-262.0
1374,289.0,-1131.0,132.0,-91.0,-125.0,-75.0
1375,125.0,-1057.0,205.0,-45.0,0.0,39.0
1376,47.0,-1025.0,231.0,-37.0,30.0,29.0
1377,51.0,-1003.0,235.0,-36.0,13.0,-39.0
1378,43.0,-987.0,230.0,-37.0,10.0,-94.0
1379,42.0,-1006.0,190.0,-37.0,9.0,-132.0
1380,45.0,-977.0,222.0,1.0,-7.0,-156.0
1381,96.0,-979.0,236.0,29.0,-38.0,-173.0
1382,104.0,-926.0,274.0,154.0,43.0,-12.0
1383,77.0,-940.0,267.0,110.0,59.0,-14.0
1384,97.0,-959.0,248.0,78.0,54.0,-32.0
1385,112.0,-946.0,255.0,62.0,53.0,-37.0
1386,120.0,-944.0,252.0,40.0,58.0,-24.0
1387,110.0,-947.0,251.0,20.0,69.0,-10.0
1388,99.0,-954.0,241.0,5.0,73.0,-2.0
1389,95.0,-952.0,247.0,0.0,73.0,-3.0
1390,90.0,-950.0,252.0,-8.0,72.0,-7.0
1391,95.0,-926.0,256.0,-36.0,68.0,-11.0
1392,94.0,-993.0,230.0,38.0,119.0,27.0
1393,73.0,-914.0,266.0,34.0,91.0,-3.0
1394,88.0,-923.0,256.0,15.0,87.0,-5.0
1395,97.0,-930.0,247.0,6.0,85.0,6.0
1396,100.0,-927.0,254.0,4.0,81.0,23.0
1397,87.0,-934.0,254.0,-2.0,80.0,39.0
1398,80.0,-944.0,255.0,-10.0,79.0,43.0
1399,73.0,-950.0,254.0,-14.0,76.0,39.0
1400,69.0,-957.0,253.0,-19.0,72.0,32.0
1401,71.0,-968.0,251.0,-23.0,67.0,19.0
1402,73.0,-975.0,244.0,-27.0,66.0,6.0
1403,77.0,-983.0,244.0,-27.0,65.0,-7.0
1404,79.0,-975.0,244.0,-15.0,64.0,-23.0
1405,89.0,-959.0,250.0,-24.0,69.0,-17.0
1406,89.0,-966.0,244.0,-46.0,68.0,-42.0
1407,101.0,-970.0,239.0,-47.0,65.0,-35.0
1408,104.0,-981.0,225.0,-45.0,68.0,-22.0
1409,86.0,-959.0,245.0,-30.0,70.0,-5.0
1410,83.0,-957.0,247.0,-31.0,65.0,1.0
1411,93.0,-958.0,245.0,-36.0,59.0,3.0
1412,98.0,-961.0,243.0,-41.0,59.0,13.0
1413,98.0,-962.0,242.0,-44.0,63.0,26.0
1414,96.0,-959.0,243.0,-46.0,66.0,37.0
1415,84.0,-960.0,244.0,-48.0,72.0,44.0
1416,74.0,-959.0,245.0,-52.0,77.0,43.0
1417,92.0,-1019.0,221.0,33.0,115.0,121.0
1418,92.0,-1016.0,225.0,61.0,126.0,131.0
1419,86.0,-1020.0,232.0,92.0,134.0,147.0
1420,86.0,-1043.0,228.0,116.0,143.0,155.0
1421,72.0,-1041.0,233.0,146.0,151.0,159.0
1422,70.0,-1046.0,239.0,170.0,149.0,156.0
1423,70.0,-1057.0,253.0,186.0,149.0,150.0
1424,76.0,-1083.0,249.0,192.0,148.0,146.0
1425,90.0,-1094.0,249.0,204.0,145.0,146.0
1426,81.0,-1099.0,256.0,223.0,154.0,154.0
1427,66.0,-1114.0,261.0,240.0,151.0,161.0
1428,232.0,-909.0,110.0,1237.0,457.0,-144.0
1429,88.0,-1305.0,113.0,-2175.0,-210.0,-194.0
1430,87.0,-1325.0,181.0,-2132.0,-283.0,-196.0
1431,84.0,-1310.0,243.0,-2063.0,-353.0,-183.0
1432,117.0,-1263.0,281.0,-2000.0,-428.0,-169.0
1433,133.0,-1223.0,310.0,-1972.0,-482.0,-164.0
1434,162.0,-1264.0,316.0,-1974.0,-530.0,-159.0
1435,190.0,-1287.0,323.0,-1924.0,-568.0,-163.0
1436,186.0,-1273.0,330.0,-1834.0,-583.0,-174.0
1437,193.0,-1236.0,338.0,-1738.0,-602.0,-182.0
1438,188.0,-1212.0,380.0,-1663.0,-603.0,-191.0
1439,189.0,-1216.0,418.0,-1587.0,-573.0,-183.0
1440,-245.0,-987.0,175.0,41.0,1362.0,-205.0
1441,-88.0,-914.0,58.0,212.0,-240.0,-87.0
1442,45.0,-1244.0,-362.0,1855.0,-166.0,-100.0
1443,-7.0,-1081.0,-93.0,1872.0,-111.0,-178.0
1444,26.0,-1102.0,61.0,1756.0,-85.0,-271.0
1445,119.0,-1153.0,111.0,1743.0,-71.0,-356.0
1446,159.0,-1137.0,107.0,1829.0,-7.0,-418.0
1447,114.0,-941.0,16.0,1904.0,61.0,-482.0
1448,-5.0,-763.0,-171.0,1811.0,75.0,-463.0
1449,220.0,-864.0,-163.0,1537.0,-98.0,-285.0
1450,292.0,-977.0,135.0,1364.0,-103.0,-75.0
1451,103.0,-760.0,448.0,1321.0,-10.0,-3.0
1452,67.0,-959.0,152.0,155.0,127.0,43.0
1453,58.0,-956.0,154.0,165.0,130.0,31.0
1454,53.0,-967.0,144.0,166.0,130.0,21.0
1455,74.0,-981.0,113.0,172.0,118.0,14.0
1456,62.0,-985.0,116.0,195.0,106.0,14.0
1457,33.0,-975.0,148.0,221.0,103.0,1.0
1458,10.0,-971.0,176.0,228.0,113.0,-35.0
1459,48.0,-989.0,151.0,220.0,107.0,-70.0
1460,67.0,-1009.0,125.0,224.0,98.0,-76.0
1461,61.0,-999.0,150.0,253.0,87.0,-67.0
1462,72.0,-957.0,192.0,278.0,73.0,-67.0
1463,50.0,-960.0,217.0,114.0,118.0,-123.0
1464,67.0,-971.0,207.0,97.0,105.0,-129.0
1465,87.0,-971.0,202.0,88.0,87.0,-117.0
1466,84.0,-973.0,204.0,80.0,80.0,-95.0
1467,86.0,-974.0,214.0,74.0,76.0,-78.0
1468,101.0,-981.0,207.0,64.0,71.0,-62.0
1469,95.0,-978.0,212.0,62.0,76.0,-41.0
1470,99.0,-975.0,222.0,59.0,77.0,-25.0
1471,99.0,-988.0,209.0,49.0,89.0,-13.0
1472,62.0,-963.0,227.0,77.0,123.0,105.0
1473,40.0,-970.0,235.0,60.0,203.0,132.0
1474,40.0,-992.0,240.0,156.0,223.0,210.0
1475,29.0,-998.0,239.0,166.0,236.0,221.0
1476,32.0,-992.0,238.0,190.0,239.0,232.0
1477,-14.0,-987.0,242.0,207.0,253.0,243.0
1478,-39.0,-979.0,254.0,225.0,236.0,230.0
1479,-51.0,-994.0,248.0,236.0,212.0,201.0
1480,-12.0,-998.0,264.0,254.0,183.0,168.0
1481,35.0,-1021.0,263.0,254.0,170.0,165.0
1482,41.0,-1049.0,270.0,250.0,185.0,198.0
1483,43.0,-1088.0,263.0,242.0,199.0,240.0
1484,37.0,-1162.0,268.0,229.0,213.0,276.0
1485,97.0,-1294.0,255.0,213.0,205.0,331.0
1486,229.0,-1249.0,-127.0,3074.0,419.0,156.0
1487,182.0,-1059.0,-28.0,3086.0,494.0,173.0
1488,180.0,-867.0,145.0,3080.0,492.0,167.0
1489,178.0,-712.0,400.0,3023.0,468.0,197.0
1490,124.0,-585.0,559.0,2921.0,457.0,296.0
1491,78.0,-332.0,590.0,2752.0,416.0,390.0
1492,47.0,-131.0,536.0,2338.0,304.0,438.0
1493,-41.0,-94.0,455.0,1751.0,115.0,446.0
1494,94.0,-20.0,306.0,1246.0,-216.0,418.0
1495,530.0,-43.0,-10.0,759.0,-447.0,383.0
1496,18.0,-57.0,-183.0,229.0,8.0,311.0
1497,-778.0,-69.0,-59.0,-421.0,30.0,452.0
1498,411.0,-607.0,-252.0,-1008.0,-1366.0,656.0
1499,1034.0,-575.0,-308.0,-860.0,-1388.0,428.0
1500,706.0,-271.0,-211.0,-751.0,-537.0,52.0
1501,452.0,-393.0,-278.0,-1450.0,69.0,-98.0
1502,141.0,-1501.0,365.0,-2736.0,-490.0,-1392.0
1503,-200.0,-1764.0,644.0,-2507.0,103.0,-1186.0
1504,-223.0,-1691.0,684.0,-2278.0,364.0,-1095.0
1505,-294.0,-1579.0,717.0,-2080.0,650.0,-1021.0
1506,-376.0,-1487.0,710.0,-1941.0,868.0,-915.0
1507,-324.0,-1510.0,654.0,-1829.0,988.0,-709.0
1508,-375.0,-1480.0,627.0,-1630.0,1144.0,-524.0
1509,-434.0,-1359.0,635.0,-1421.0,1216.0,-536.0
1510,-391.0,-1321.0,626.0,-1313.0,1153.0,-654.0
1511,-441.0,-1301.0,650.0,-1192.0,1080.0,-740.0
1512,-501.0,-1251.0,670.0,-1048.0,937.0,-783.0
1513,-344.0,-1252.0,659.0,-922.0,702.0,-734.0
1514,-354.0,-1078.0,-401.0,2985.0,546.0,443.0
1515,171.0,-244.0,979.0,2553.0,-367.0,99.0
1516,88.0,-532.0,1430.0,1521.0,-262.0,175.0
1517,502.0,-629.0,865.0,798.0,-75.0,254.0
1518,10.0,-1273.0,186.0,165.0,364.0,364.0
1519,124.0,-1183.0,107.0,226.0,180.0,232.0
1520,89.0,-974.0,252.0,291.0,163.0,132.0
1521,162.0,-972.0,158.0,228.0,140.0,105.0
1522,133.0,-970.0,175.0,86.0,110.0,127.0
1523,140.0,-978.0,166.0,95.0,108.0,136.0
1524,129.0,-973.0,170.0,111.0,109.0,151.0
1525,129.0,-963.0,184.0,126.0,102.0,164.0
1526,119.0,-961.0,189.0,129.0,106.0,175.0
1527,104.0,-966.0,192.0,125.0,112.0,175.0
1528,108.0,-967.0,190.0,120.0,108.0,169.0
1529,108.0,-974.0,190.0,113.0,110.0,167.0
1530,103.0,-984.0,184.0,108.0,114.0,165.0
1531,96.0,-977.0,191.0,109.0,116.0,156.0
1532,98.0,-973.0,197.0,111.0,116.0,148.0
1533,81.0,-961.0,218.0,101.0,133.0,195.0
1534,65.0,-1011.0,213.0,123.0,216.0,-7.0
1535,203.0,-1369.0,263.0,344.0,433.0,621.0
1536,-28.0,-1369.0,322.0,599.0,655.0,756.0
1537,64.0,-1327.0,258.0,799.0,615.0,886.0
1538,84.0,-1476.0,265.0,880.0,585.0,896.0
1539,24.0,-1611.0,318.0,1134.0,612.0,910.0
1540,-117.0,-1709.0,348.0,1455.0,594.0,877.0
1541,-148.0,-1596.0,367.0,1835.0,491.0,845.0
1542,-314.0,-1515.0,388.0,2006.0,449.0,658.0
1543,-401.0,-1573.0,317.0,1975.0,360.0,381.0
1544,-250.0,-1784.0,297.0,1946.0,142.0,213.0
1545,-97.0,-1668.0,312.0,2192.0,-8.0,253.0
1546,174.0,208.0,374.0,939.0,-69.0,664.0
1547,-316.0,-1729.0,505.0,-2145.0,-735.0,-1021.0
1548,-278.0,-1707.0,521.0,-1947.0,-954.0,-972.0
1549,-315.0,-1600.0,578.0,-1759.0,-1095.0,-917.0
1550,-353.0,-1513.0,627.0,-1647.0,-1224.0,-837.0
1551,-460.0,-1802.0,718.0,-1575.0,-1286.0,-687.0
1552,-383.0,-1015.0,783.0,-1146.0,-1439.0,-477.0
1553,-245.0,-1374.0,820.0,-1540.0,-1598.0,-332.0
1554,-19.0,-1244.0,814.0,-1474.0,-1715.0,-255.0
1555,19.0,-851.0,928.0,-1351.0,-1712.0,-156.0
1556,120.0,-1091.0,1005.0,-1550.0,-1738.0,-312.0
1557,192.0,-951.0,1233.0,-1375.0,-1690.0,-401.0
1558,829.0,-1714.0,-1884.0,5094.0,3035.0,-551.0
1559,25.0,-915.0,350.0,406.0,72.0,422.0
1560,116.0,-1026.0,120.0,168.0,168.0,-220.0
1561,107.0,-982.0,175.0,266.0,132.0,-200.0
1562,193.0,-916.0,208.0,300.0,51.0,-172.0
1563,207.0,-942.0,160.0,266.0,57.0,-108.0
1564,171.0,-933.0,184.0,281.0,81.0,-13.0
1565,138.0,-916.0,201.0,291.0,72.0,53.0
1566,123.0,-909.0,214.0,275.0,76.0,70.0
1567,125.0,-916.0,217.0,251.0,78.0,66.0
1568,102.0,-932.0,222.0,219.0,90.0,63.0
1569,108.0,-970.0,210.0,186.0,94.0,42.0
1570,148.0,-983.0,189.0,167.0,91.0,26.0
1571,78.0,-936.0,247.0,86.0,76.0,111.0
1572,103.0,-963.0,235.0,-46.0,85.0,17.0
1573,83.0,-973.0,222.0,33.0,105.0,92.0
1574,79.0,-968.0,226.0,41.0,100.0,94.0
1575,72.0,-975.0,225.0,45.0,99.0,91.0
1576,82.0,-976.0,224.0,50.0,98.0,83.0
1577,88.0,-975.0,223.0,57.0,101.0,83.0
1578,94.0,-973.0,223.0,65.0,106.0,88.0
1579,95.0,-974.0,223.0,72.0,113.0,99.0
1580,70.0,-966.0,230.0,82.0,124.0,108.0
1581,50.0,-967.0,242.0,84.0,130.0,98.0
1582,52.0,-973.0,245.0,77.0,130.0,70.0
1583,62.0,-972.0,236.0,71.0,132.0,46.0
1584,105.0,-1134.0,235.0,215.0,210.0,281.0
1585,142.0,-1155.0,229.0,230.0,219.0,313.0
1586,162.0,-1185.0,223.0,258.0,227.0,374.0
1587,157.0,-1223.0,221.0,323.0,256.0,432.0
1588,38.0,-1158.0,297.0,676.0,433.0,449.0
1589,-19.0,-1091.0,309.0,739.0,428.0,383.0
1590,-79.0,-1019.0,304.0,755.0,408.0,278.0
1591,-114.0,-1135.0,320.0,709.0,343.0,167.0
1592,-117.0,-1097.0,322.0,801.0,252.0,98.0
1593,-123.0,-1113.0,322.0,889.0,186.0,115.0
1594,-113.0,-1045.0,331.0,977.0,138.0,186.0
1595,137.0,-1081.0,393.0,1273.0,420.0,5.0
1596,183.0,-899.0,426.0,1320.0,510.0,38.0
1597,137.0,-865.0,508.0,1262.0,582.0,24.0
1598,109.0,-733.0,570.0,1222.0,584.0,-67.0
1599,-35.0,-638.0,557.0,1132.0,616.0,-89.0
1600,-17.0,-538.0,486.0,990.0,501.0,-17.0
1601,-42.0,-523.0,385.0,810.0,409.0,60.0
1602,-72.0,-447.0,332.0,645.0,334.0,113.0
1603,-136.0,-308.0,288.0,452.0,247.0,156.0
1604,-214.0,-247.0,198.0,142.0,160.0,240.0
1605,-170.0,-303.0,-65.0,-246.0,46.0,384.0
1606,-481.0,-286.0,-120.0,-634.0,60.0,521.0
1607,-604.0,-531.0,-107.0,-1101.0,-258.0,701.0
1608,-335.0,-742.0,-157.0,-1303.0,-785.0,776.0
1609,-380.0,-675.0,-142.0,-1255.0,-930.0,720.0
1610,80.0,-1063.0,-5.0,-1610.0,-3972.0,1044.0
1611,656.0,-1129.0,580.0,-807.0,-3565.0,652.0
1612,696.0,-755.0,529.0,714.0,-744.0,-104.0
1613,303.0,-783.0,359.0,556.0,-323.0,68.0
1614,175.0,-855.0,134.0,446.0,-206.0,94.0
1615,321.0,-670.0,-78.0,452.0,-204.0,8.0
1616,195.0,-748.0,91.0,293.0,46.0,-88.0
1617,3.0,-925.0,303.0,195.0,218.0,-64.0
1618,187.0,-714.0,461.0,252.0,82.0,-28.0
1619,306.0,-782.0,433.0,-9.0,71.0,26.0
1620,292.0,-839.0,349.0,-189.0,147.0,137.0
1621,165.0,-979.0,244.0,-295.0,268.0,237.0
1622,69.0,-1028.0,251.0,-257.0,297.0,297.0
1623,57.0,-972.0,270.0,-10.0,35.0,-226.0
1624,140.0,-988.0,245.0,-34.0,14.0,-178.0
1625,91.0,-988.0,253.0,-30.0,37.0,-133.0
1626,97.0,-983.0,253.0,-31.0,36.0,-125.0
1627,104.0,-978.0,257.0,-32.0,35.0,-114.0
1628,97.0,-970.0,263.0,-34.0,39.0,-96.0
1629,109.0,-955.0,262.0,-43.0,40.0,-86.0
1630,77.0,-954.0,263.0,-56.0,52.0,-74.0
1631,75.0,-953.0,267.0,-67.0,55.0,-84.0
1632,107.0,-967.0,249.0,-79.0,49.0,-97.0
1633,87.0,-955.0,257.0,-70.0,53.0,-85.0
1634,104.0,-963.0,249.0,-65.0,-35.0,-80.0
1635,117.0,-977.0,233.0,-66.0,-40.0,-75.0
1636,119.0,-963.0,242.0,-54.0,-40.0,-62.0
1637,101.0,-962.0,249.0,-51.0,-37.0,-49.0
1638,104.0,-970.0,245.0,-55.0,-42.0,-50.0
1639,130.0,-969.0,235.0,-54.0,-50.0,-47.0
1640,125.0,-974.0,234.0,-46.0,-44.0,-29.0
1641,124.0,-987.0,224.0,-38.0,-39.0,-15.0
1642,127.0,-973.0,230.0,-20.0,-38.0,-5.0
1643,119.0,-963.0,236.0,-6.0,-38.0,7.0
1644,95.0,-965.0,237.0,0.0,-32.0,12.0
1645,110.0,-955.0,247.0,40.0,-89.0,61.0
1646,109.0,-950.0,248.0,31.0,-87.0,61.0
1647,100.0,-956.0,248.0,22.0,-80.0,59.0
1648,104.0,-956.0,248.0,14.0,-75.0,51.0
1649,108.0,-961.0,242.0,8.0,-69.0,47.0
1650,100.0,-968.0,243.0,6.0,-59.0,46.0
1651,106.0,-962.0,249.0,6.0,-56.0,40.0
1652,109.0,-967.0,246.0,2.0,-50.0,38.0
1653,117.0,-964.0,247.0,2.0,-43.0,40.0
1654,115.0,-974.0,244.0,1.0,-31.0,44.0
1655,-298.0,-1454.0,346.0,570.0,-412.0,1501.0
1656,-149.0,-1071.0,289.0,856.0,-547.0,1630.0
1657,-159.0,-1123.0,220.0,710.0,-699.0,1341.0
1658,-91.0,-1148.0,195.0,664.0,-906.0,1015.0
1659,-25.0,-1067.0,167.0,687.0,-1073.0,914.0
1660,-94.0,-1020.0,157.0,637.0,-1127.0,950.0
1661,-286.0,-938.0,196.0,566.0,-1212.0,975.0
1662,-344.0,-934.0,223.0,438.0,-1486.0,1061.0
1663,-408.0,-918.0,222.0,329.0,-1813.0,1156.0
1664,82.0,-869.0,-434.0,-287.0,-4082.0,1094.0
1665,75.0,-912.0,-399.0,-395.0,-3981.0,1106.0
1666,78.0,-958.0,-356.0,-474.0,-3880.0,1155.0
1667,52.0,-971.0,-304.0,-504.0,-3787.0,1198.0
1668,-42.0,-991.0,-248.0,-523.0,-3718.0,1227.0
1669,-65.0,-1010.0,-225.0,-525.0,-3730.0,1269.0
1670,1123.0,-849.0,221.0,-435.0,-1468.0,460.0
1671,1100.0,-881.0,250.0,-489.0,-1002.0,350.0
1672,1071.0,-986.0,278.0,-516.0,-569.0,232.0
1673,964.0,-1143.0,322.0,-441.0,-147.0,94.0
1674,863.0,-1282.0,333.0,-204.0,211.0,-72.0
1675,820.0,-1809.0,396.0,252.0,517.0,-301.0
1676,707.0,-1392.0,756.0,1385.0,836.0,-575.0
1677,249.0,-506.0,1276.0,1980.0,1035.0,-414.0
1678,181.0,-757.0,1337.0,1335.0,821.0,76.0
1679,415.0,-416.0,1269.0,981.0,603.0,482.0
1680,-162.0,-410.0,1075.0,433.0,779.0,754.0
1681,118.0,-987.0,229.0,59.0,-87.0,-365.0
1682,83.0,-944.0,262.0,64.0,-51.0,-313.0
1683,54.0,-933.0,280.0,49.0,-32.0,-281.0
1684,44.0,-966.0,255.0,23.0,-28.0,-267.0
1685,68.0,-990.0,221.0,24.0,-29.0,-259.0
1686,95.0,-964.0,242.0,52.0,-34.0,-235.0
1687,77.0,-971.0,238.0,57.0,-30.0,-194.0
1688,36.0,-953.0,257.0,62.0,-32.0,-161.0
1689,46.0,-939.0,268.0,58.0,-65.0,-149.0
1690,59.0,-948.0,264.0,42.0,-84.0,-143.0
1691,76.0,-956.0,252.0,33.0,-86.0,-135.0
1692,69.0,-986.0,248.0,18.0,-61.0,-128.0
1693,131.0,-962.0,237.0,-65.0,19.0,-80.0
1694,143.0,-959.0,240.0,-65.0,37.0,-52.0
1695,138.0,-972.0,237.0,-71.0,61.0,-18.0
1696,128.0,-976.0,238.0,-71.0,86.0,11.0
1697,112.0,-983.0,231.0,-69.0,104.0,36.0
1698,100.0,-980.0,231.0,-62.0,114.0,55.0
1699,42.0,-982.0,233.0,-53.0,123.0,66.0
1700,72.0,-1006.0,229.0,-46.0,104.0,45.0
1701,81.0,-1001.0,230.0,-36.0,100.0,31.0
1702,91.0,-1009.0,224.0,-31.0,99.0,33.0
1703,93.0,-1000.0,220.0,-20.0,99.0,41.0
1704,83.0,-977.0,239.0,-10.0,98.0,50.0
1705,77.0,-989.0,231.0,-13.0,97.0,46.0
1706,91.0,-959.0,241.0,2.0,95.0,33.0
1707,84.0,-972.0,237.0,9.0,58.0,-50.0
1708,71.0,-948.0,251.0,6.0,69.0,-12.0
1709,75.0,-953.0,248.0,-17.0,-2.0,-127.0
1710,108.0,-975.0,226.0,-28.0,-4.0,-125.0
1711,110.0,-972.0,234.0,-23.0,4.0,-106.0
1712,122.0,-970.0,238.0,-26.0,13.0,-84.0
1713,122.0,-968.0,237.0,-36.0,27.0,-64.0
1714,96.0,-967.0,240.0,-44.0,47.0,-43.0
1715,82.0,-964.0,243.0,-52.0,55.0,-42.0
1716,82.0,-969.0,242.0,-62.0,59.0,-50.0
1717,99.0,-971.0,236.0,-67.0,60.0,-58.0
1718,92.0,-975.0,233.0,-67.0,69.0,-52.0
1719,91.0,-993.0,222.0,-63.0,76.0,-52.0
1720,106.0,-989.0,224.0,62.0,122.0,54.0
1721,97.0,-1333.0,269.0,275.0,11.0,201.0
1722,124.0,-1415.0,282.0,400.0,18.0,220.0
1723,128.0,-1522.0,301.0,572.0,64.0,222.0
1724,75.0,-1603.0,314.0,819.0,134.0,169.0
1725,96.0,-1634.0,296.0,1126.0,108.0,-36.0
1726,279.0,-1283.0,256.0,1386.0,37.0,-456.0
1727,197.0,-1804.0,229.0,1262.0,173.0,-528.0
1728,164.0,-1696.0,211.0,1611.0,258.0,-246.0
1729,337.0,-1566.0,161.0,1824.0,227.0,-211.0
1730,405.0,-1592.0,138.0,1889.0,295.0,-325.0
1731,496.0,-1489.0,69.0,2053.0,403.0,-394.0
1732,133.0,-478.0,-420.0,-1686.0,448.0,-616.0
1733,168.0,-532.0,-401.0,-1842.0,383.0,-576.0
1734,192.0,-580.0,-369.0,-1985.0,376.0,-558.0
1735,226.0,-679.0,-343.0,-2127.0,411.0,-530.0
1736,233.0,-774.0,-254.0,-2412.0,712.0,-482.0
1737,182.0,-875.0,-198.0,-2530.0,838.0,-479.0
1738,83.0,-999.0,-120.0,-2596.0,928.0,-488.0
1739,-49.0,-1116.0,-25.0,-2598.0,942.0,-518.0
1740,-178.0,-1214.0,78.0,-2549.0,858.0,-569.0
1741,-280.0,-1282.0,181.0,-2460.0,675.0,-624.0
1742,-347.0,-1322.0,258.0,-2352.0,416.0,-657.0
1743,-379.0,-1297.0,307.0,-2240.0,118.0,-635.0
1744,63.0,-1138.0,604.0,85.0,-145.0,-150.0
1745,292.0,-1083.0,577.0,233.0,-138.0,-126.0
1746,440.0,-970.0,536.0,374.0,60.0,-249.0
1747,514.0,-754.0,487.0,454.0,379.0,-469.0
1748,389.0,-590.0,464.0,344.0,792.0,-640.0
1749,-1.0,-726.0,482.0,-124.0,1294.0,-657.0
1750,-68.0,-812.0,487.0,-193.0,1326.0,-581.0
1751,-69.0,-847.0,487.0,-154.0,1311.0,-512.0
1752,-87.0,-883.0,480.0,-93.0,1301.0,-490.0
1753,-130.0,-828.0,493.0,12.0,1265.0,-492.0
1754,-163.0,-744.0,502.0,64.0,1186.0,-466.0
1755,-207.0,-746.0,506.0,19.0,1080.0,-382.0
1756,-208.0,-867.0,502.0,-36.0,928.0,-259.0
1757,-140.0,-915.0,461.0,24.0,773.0,-155.0
1758,150.0,-1134.0,195.0,1.0,138.0,376.0
1759,164.0,-960.0,92.0,193.0,88.0,163.0
1760,164.0,-949.0,114.0,234.0,62.0,170.0
1761,154.0,-941.0,125.0,249.0,49.0,177.0
1762,170.0,-950.0,126.0,246.0,35.0,175.0
1763,148.0,-951.0,143.0,249.0,41.0,170.0
1764,106.0,-962.0,137.0,238.0,56.0,157.0
1765,136.0,-1004.0,107.0,224.0,49.0,133.0
1766,165.0,-995.0,137.0,245.0,33.0,124.0
1767,183.0,-970.0,168.0,244.0,27.0,144.0
1768,196.0,-959.0,178.0,213.0,35.0,183.0
1769,178.0,-971.0,174.0,181.0,45.0,214.0
1770,139.0,-961.0,180.0,106.0,58.0,51.0
1771,100.0,-974.0,187.0,23.0,56.0,36.0
1772,105.0,-984.0,163.0,18.0,40.0,153.0
1773,102.0,-977.0,178.0,29.0,32.0,158.0
1774,100.0,-972.0,182.0,30.0,32.0,157.0
1775,102.0,-971.0,184.0,28.0,29.0,161.0
1776,102.0,-972.0,181.0,23.0,32.0,165.0
1777,112.0,-968.0,180.0,22.0,32.0,172.0
1778,107.0,-973.0,174.0,24.0,36.0,187.0
1779,96.0,-983.0,164.0,30.0,42.0,197.0
1780,104.0,-972.0,182.0,44.0,40.0,202.0
1781,94.0,-971.0,187.0,46.0,49.0,207.0
1782,52.0,-984.0,188.0,72.0,114.0,221.0
1783,59.0,-988.0,181.0,76.0,119.0,231.0
1784,50.0,-981.0,191.0,86.0,123.0,252.0
1785,56.0,-975.0,199.0,89.0,117.0,278.0
1786,32.0,-977.0,197.0,88.0,116.0,304.0
1787,24.0,-983.0,194.0,91.0,114.0,313.0
1788,17.0,-996.0,189.0,96.0,108.0,322.0
1789,23.0,-1014.0,174.0,112.0,101.0,327.0
1790,13.0,-1016.0,177.0,155.0,104.0,330.0
1791,19.0,-992.0,206.0,203.0,100.0,333.0
1792,32.0,-1019.0,218.0,216.0,102.0,341.0
1793,-449.0,-1341.0,277.0,2332.0,392.0,825.0
1794,-318.0,-1670.0,210.0,2050.0,164.0,682.0
1795,-165.0,-1729.0,137.0,2083.0,40.0,664.0
1796,-152.0,-1675.0,129.0,2315.0,4.0,658.0
1797,-137.0,-1680.0,83.0,2423.0,-33.0,613.0
1798,-115.0,-1612.0,33.0,2573.0,-67.0,609.0
1799,-41.0,-1588.0,-19.0,2669.0,-100.0,624.0
1800,33.0,-1521.0,-43.0,2781.0,-82.0,650.0
1801,131.0,-1467.0,4.0,2886.0,9.0,666.0
1802,-165.0,-1348.0,-12.0,3025.0,305.0,697.0
1803,-145.0,-1055.0,23.0,3139.0,271.0,716.0
1804,417.0,-489.0,-357.0,-1079.0,-227.0,14.0
1805,160.0,-404.0,-338.0,-1149.0,-213.0,-97.0
1806,107.0,-400.0,-338.0,-1302.0,-431.0,-154.0
1807,62.0,-391.0,-349.0,-1424.0,-668.0,-223.0
1808,57.0,-334.0,-356.0,-1530.0,-940.0,-307.0
1809,220.0,-276.0,-392.0,-1702.0,-1236.0,-359.0
1810,408.0,-227.0,-420.0,-1944.0,-1391.0,-407.0
1811,592.0,-301.0,-437.0,-2303.0,-1357.0,-491.0
1812,705.0,-451.0,-417.0,-2662.0,-1145.0,-572.0
1813,717.0,-616.0,-366.0,-2934.0,-810.0,-634.0
1814,676.0,-769.0,-292.0,-3136.0,-439.0,-688.0
1815,43.0,-1729.0,532.0,-2541.0,-720.0,-1417.0
1816,-167.0,-1741.0,635.0,-2440.0,-553.0,-1321.0
1817,-389.0,-1644.0,717.0,-2308.0,-548.0,-1222.0
1818,-570.0,-1696.0,747.0,-2276.0,-632.0,-1172.0
1819,-783.0,-1730.0,872.0,-2181.0,-713.0,-1123.0
1820,-455.0,-1656.0,943.0,-1953.0,-821.0,-964.0
1821,8.0,-1287.0,1037.0,-1633.0,-555.0,-633.0
1822,121.0,-1396.0,-1318.0,5127.0,1506.0,343.0
1823,-761.0,655.0,1116.0,5198.0,1432.0,80.0
1824,-169.0,-610.0,1844.0,2795.0,365.0,-149.0
1825,687.0,11.0,1497.0,1993.0,-219.0,-51.0
1826,423.0,-1019.0,198.0,683.0,59.0,543.0
1827,116.0,-1251.0,-29.0,401.0,129.0,818.0
1828,-108.0,-882.0,341.0,658.0,104.0,635.0
1829,32.0,-997.0,178.0,342.0,37.0,305.0
1830,158.0,-971.0,157.0,206.0,68.0,96.0
1831,197.0,-952.0,136.0,164.0,129.0,50.0
1832,161.0,-944.0,145.0,180.0,144.0,53.0
1833,126.0,-973.0,146.0,60.0,187.0,-1.0
1834,114.0,-965.0,161.0,54.0,169.0,-32.0
1835,132.0,-975.0,150.0,36.0,152.0,-66.0
1836,149.0,-972.0,154.0,28.0,136.0,-93.0
1837,184.0,-966.0,148.0,16.0,116.0,-95.0
1838,181.0,-970.0,150.0,4.0,117.0,-76.0
1839,186.0,-967.0,148.0,-2.0,120.0,-54.0
1840,180.0,-976.0,141.0,-5.0,130.0,-32.0
1841,180.0,-987.0,129.0,-2.0,144.0,-17.0
1842,160.0,-1012.0,126.0,6.0,161.0,-10.0
1843,156.0,-1020.0,108.0,13.0,160.0,-20.0
1844,157.0,-968.0,143.0,78.0,120.0,-7.0
1845,155.0,-978.0,163.0,53.0,142.0,36.0
1846,149.0,-987.0,162.0,60.0,148.0,43.0
1847,161.0,-1002.0,145.0,69.0,149.0,44.0
1848,163.0,-979.0,165.0,106.0,148.0,56.0
1849,172.0,-973.0,169.0,118.0,152.0,76.0
1850,167.0,-982.0,167.0,122.0,164.0,98.0
1851,166.0,-976.0,169.0,136.0,175.0,115.0
1852,153.0,-971.0,175.0,147.0,186.0,136.0
1853,137.0,-973.0,176.0,149.0,196.0,146.0
1854,131.0,-969.0,182.0,155.0,194.0,150.0
1855,132.0,-972.0,178.0,158.0,190.0,151.0
1856,127.0,-969.0,184.0,169.0,188.0,152.0
1857,132.0,-962.0,195.0,174.0,179.0,160.0
1858,121.0,-967.0,195.0,166.0,184.0,166.0
1859,102.0,-975.0,197.0,161.0,194.0,158.0
1860,157.0,-1292.0,243.0,550.0,283.0,384.0
1861,239.0,-1284.0,237.0,749.0,302.0,448.0
1862,225.0,-1269.0,251.0,943.0,400.0,531.0
1863,105.0,-1342.0,260.0,1101.0,516.0,570.0
1864,20.0,-1302.0,288.0,1277.0,532.0,550.0
1865,-18.0,-1293.0,313.0,1373.0,481.0,436.0
1866,-59.0,-1323.0,335.0,1425.0,420.0,255.0
1867,-78.0,-1408.0,372.0,1466.0,347.0,140.0
1868,-76.0,-1483.0,370.0,1537.0,284.0,120.0
1869,-55.0,-1542.0,353.0,1645.0,222.0,93.0
1870,-86.0,-1566.0,348.0,1771.0,170.0,60.0
1871,-114.0,-1599.0,335.0,1905.0,114.0,28.0
1872,-101.0,-1626.0,320.0,2060.0,61.0,-8.0
1873,-128.0,-1643.0,315.0,2227.0,42.0,-49.0
1874,-20.0,-1680.0,328.0,2388.0,-10.0,-83.0
1875,275.0,362.0,310.0,1502.0,78.0,282.0
1876,187.0,-452.0,-224.0,-2572.0,-316.0,-354.0
1877,339.0,-463.0,-210.0,-2690.0,-469.0,-344.0
1878,575.0,-494.0,-218.0,-2841.0,-504.0,-320.0
1879,731.0,-583.0,-192.0,-3032.0,-320.0,-349.0
1880,742.0,-756.0,-140.0,-3228.0,6.0,-442.0
1881,609.0,-918.0,-40.0,-3341.0,335.0,-572.0
1882,387.0,-1064.0,82.0,-3387.0,580.0,-702.0
1883,165.0,-1181.0,196.0,-3371.0,672.0,-790.0
1884,-18.0,-1224.0,292.0,-3302.0,597.0,-842.0
1885,-136.0,-1251.0,363.0,-3249.0,377.0,-893.0
1886,-160.0,-1301.0,394.0,-3220.0,44.0,-947.0
1887,-777.0,-1546.0,835.0,-1154.0,158.0,-1216.0
1888,-1012.0,-1042.0,1181.0,458.0,-445.0,977.0
1889,-707.0,-774.0,926.0,659.0,-951.0,911.0
1890,-504.0,-784.0,647.0,525.0,-1245.0,408.0
1891,-213.0,-302.0,332.0,403.0,-1513.0,-14.0
1892,284.0,-1268.0,-212.0,-300.0,-1792.0,-386.0
1893,1295.0,-1466.0,-1030.0,-100.0,-1712.0,-497.0
1894,1446.0,-1695.0,-1592.0,359.0,-594.0,-114.0
1895,941.0,-1959.0,-1958.0,937.0,670.0,517.0
1896,169.0,-982.0,152.0,-36.0,113.0,-65.0
1897,137.0,-989.0,144.0,-26.0,124.0,-67.0
1898,125.0,-986.0,140.0,7.0,122.0,-96.0
1899,133.0,-983.0,146.0,40.0,105.0,-132.0
1900,164.0,-971.0,152.0,65.0,80.0,-143.0
1901,182.0,-961.0,151.0,78.0,59.0,-123.0
1902,211.0,-953.0,152.0,84.0,39.0,-91.0
1903,234.0,-945.0,150.0,94.0,30.0,-47.0
1904,234.0,-950.0,145.0,103.0,40.0,13.0
1905,221.0,-954.0,144.0,121.0,48.0,75.0
1906,206.0,-961.0,149.0,136.0,63.0,122.0
1907,188.0,-954.0,164.0,146.0,87.0,146.0
1908,172.0,-952.0,177.0,134.0,114.0,149.0
1909,160.0,-959.0,178.0,112.0,135.0,143.0
1910,139.0,-969.0,178.0,95.0,147.0,126.0
1911,158.0,-966.0,184.0,14.0,88.0,17.0
1912,154.0,-973.0,171.0,19.0,65.0,49.0
1913,119.0,-958.0,214.0,118.0,50.0,93.0
1914,122.0,-955.0,216.0,105.0,52.0,85.0
1915,121.0,-957.0,213.0,91.0,59.0,80.0
1916,121.0,-965.0,206.0,83.0,62.0,76.0
1917,124.0,-966.0,207.0,82.0,65.0,71.0
1918,133.0,-964.0,205.0,82.0,67.0,73.0
1919,128.0,-966.0,202.0,87.0,69.0,82.0
1920,118.0,-963.0,206.0,94.0,66.0,90.0
1921,120.0,-963.0,206.0,97.0,59.0,97.0
1922,122.0,-965.0,211.0,97.0,49.0,109.0
1923,126.0,-968.0,215.0,95.0,42.0,122.0
1924,99.0,-965.0,232.0,91.0,104.0,161.0
1925,108.0,-966.0,225.0,90.0,108.0,170.0
1926,94.0,-963.0,233.0,97.0,120.0,182.0
1927,84.0,-962.0,240.0,98.0,128.0,185.0
1928,89.0,-964.0,240.0,94.0,130.0,189.0
1929,88.0,-964.0,238.0,96.0,135.0,198.0
1930,84.0,-978.0,237.0,98.0,140.0,207.0
1931,84.0,-993.0,213.0,103.0,148.0,212.0
1932,78.0,-978.0,239.0,129.0,152.0,222.0
1933,77.0,-1000.0,225.0,132.0,154.0,229.0
1934,1.0,-1134.0,274.0,306.0,446.0,-375.0
1935,-86.0,-859.0,354.0,429.0,571.0,-61.0
1936,-76.0,-871.0,356.0,403.0,550.0,-35.0
1937,-48.0,-879.0,352.0,384.0,533.0,8.0
1938,19.0,-848.0,348.0,374.0,518.0,35.0
1939,52.0,-855.0,350.0,337.0,546.0,28.0
1940,50.0,-860.0,351.0,311.0,589.0,7.0
1941,39.0,-856.0,353.0,293.0,625.0,-16.0
1942,39.0,-837.0,349.0,274.0,654.0,-30.0
1943,18.0,-831.0,363.0,241.0,694.0,-34.0
1944,16.0,-828.0,368.0,207.0,723.0,-10.0
1945,13.0,-811.0,350.0,172.0,762.0,59.0
1946,-358.0,-803.0,370.0,-229.0,1229.0,-385.0
1947,11.0,-689.0,440.0,-860.0,913.0,-643.0
1948,61.0,-1133.0,170.0,-267.0,4314.0,-1022.0
1949,10.0,-1089.0,151.0,-165.0,4344.0,-1012.0
1950,10.0,-1089.0,119.0,-108.0,4330.0,-983.0
1951,-21.0,-1082.0,84.0,-51.0,4332.0,-947.0
1952,-139.0,-1070.0,77.0,-2.0,4341.0,-908.0
1953,-244.0,-1104.0,68.0,18.0,4269.0,-837.0
1954,-321.0,-1147.0,76.0,75.0,4132.0,-711.0
1955,-332.0,-1156.0,74.0,198.0,3938.0,-560.0
1956,-372.0,-1104.0,94.0,352.0,3722.0,-481.0
1957,-395.0,-1048.0,110.0,442.0,3441.0,-521.0
1958,-402.0,-1000.0,120.0,478.0,3128.0,-562.0
1959,114.0,-685.0,-1139.0,275.0,207.0,-582.0
1960,19.0,-1084.0,207.0,-55.0,-106.0,-261.0
1961,-11.0,-1067.0,199.0,-71.0,-144.0,-261.0
1962,-62.0,-1016.0,210.0,-56.0,-187.0,-290.0
1963,-82.0,-969.0,224.0,-44.0,-249.0,-326.0
1964,-24.0,-933.0,245.0,-42.0,-340.0,-361.0
1965,-25.0,-893.0,271.0,-53.0,-373.0,-387.0
1966,18.0,-882.0,260.0,-78.0,-400.0,-421.0
1967,25.0,-904.0,235.0,-105.0,-384.0,-458.0
1968,119.0,-929.0,234.0,-118.0,-386.0,-504.0
1969,144.0,-959.0,211.0,-133.0,-331.0,-524.0
1970,147.0,-996.0,191.0,-138.0,-290.0,-507.0
1971,139.0,-986.0,180.0,-97.0,-49.0,-217.0
1972,159.0,-954.0,193.0,-38.0,143.0,-235.0
1973,162.0,-956.0,195.0,-54.0,158.0,-247.0
1974,160.0,-952.0,196.0,-70.0,171.0,-259.0
1975,162.0,-954.0,189.0,-86.0,180.0,-269.0
1976,178.0,-956.0,186.0,-95.0,192.0,-279.0
1977,180.0,-960.0,176.0,-105.0,213.0,-282.0
1978,175.0,-961.0,174.0,-101.0,227.0,-279.0
1979,186.0,-971.0,179.0,-93.0,233.0,-277.0
1980,189.0,-952.0,178.0,-61.0,360.0,-66.0
1981,218.0,-961.0,166.0,-64.0,351.0,-66.0
1982,205.0,-956.0,170.0,-57.0,359.0,-53.0
1983,204.0,-959.0,173.0,-56.0,357.0,-44.0
1984,205.0,-960.0,166.0,-56.0,354.0,-38.0
1985,187.0,-954.0,177.0,-46.0,355.0,-27.0
1986,172.0,-950.0,191.0,-44.0,344.0,-21.0
1987,211.0,-951.0,177.0,-52.0,320.0,-18.0
1988,208.0,-964.0,158.0,-52.0,325.0,-4.0
1989,207.0,-971.0,164.0,-43.0,335.0,3.0
1990,190.0,-958.0,174.0,-36.0,340.0,9.0
1991,176.0,-943.0,189.0,-41.0,333.0,27.0
1992,138.0,-1003.0,195.0,54.0,230.0,72.0
1993,163.0,-1013.0,177.0,57.0,215.0,59.0
1994,167.0,-998.0,185.0,85.0,208.0,66.0
1995,190.0,-1028.0,170.0,88.0,204.0,70.0
1996,215.0,-1043.0,151.0,113.0,208.0,70.0
1997,212.0,-1030.0,158.0,153.0,228.0,75.0
1998,190.0,-1019.0,190.0,174.0,253.0,74.0
1999,167.0,-1032.0,194.0,168.0,265.0,75.0
2000,166.0,-1055.0,194.0,158.0,270.0,57.0
2001,196.0,-1086.0,177.0,154.0,274.0,31.0
2002,238.0,-1120.0,160.0,166.0,282.0,6.0
2003,368.0,-1134.0,139.0,212.0,347.0,-76.0
2004,799.0,-596.0,47.0,182.0,1900.0,-194.0
2005,841.0,-551.0,-23.0,15.0,2145.0,-292.0
2006,748.0,-565.0,-71.0,-201.0,2528.0,-368.0
2007,562.0,-650.0,-10.0,-407.0,2871.0,-398.0
2008,658.0,-652.0,26.0,-540.0,3022.0,-425.0
2009,622.0,-713.0,77.0,-687.0,3253.0,-460.0
2010,593.0,-822.0,149.0,-805.0,3454.0,-491.0
2011,511.0,-916.0,256.0,-812.0,3597.0,-540.0
2012,468.0,-887.0,348.0,-747.0,3648.0,-605.0
2013,416.0,-972.0,394.0,-736.0,3674.0,-622.0
2014,442.0,-966.0,402.0,-679.0,3658.0,-645.0
2015,421.0,-986.0,373.0,-655.0,3663.0,-687.0
2016,384.0,-1036.0,320.0,-637.0,3684.0,-718.0
2017,311.0,-1055.0,252.0,-582.0,3709.0,-728.0
2018,237.0,-1035.0,168.0,-510.0,3729.0,-788.0
2019,-367.0,-997.0,-280.0,-383.0,3521.0,-580.0
2020,-408.0,-1028.0,-253.0,-367.0,3291.0,-584.0
2021,-456.0,-1054.0,-218.0,-321.0,3032.0,-587.0
2022,-489.0,-1052.0,-190.0,-241.0,2748.0,-581.0
2023,-537.0,-935.0,-215.0,-44.0,1833.0,-482.0
2024,-692.0,-785.0,-370.0,-118.0,1470.0,-410.0
2025,-653.0,-906.0,-521.0,-359.0,1013.0,-251.0
2026,-614.0,-1522.0,-414.0,-341.0,587.0,20.0
2027,-371.0,-1224.0,-7.0,361.0,163.0,-137.0
2028,-224.0,-957.0,439.0,546.0,-19.0,-406.0
2029,-83.0,-1102.0,782.0,216.0,-78.0,-408.0
2030,97.0,-1008.0,918.0,38.0,-167.0,-327.0
2031,229.0,-1050.0,578.0,-260.0,-247.0,-263.0
2032,86.0,-1028.0,210.0,-8.0,43.0,-174.0
2033,116.0,-1032.0,171.0,24.0,51.0,-212.0
2034,108.0,-996.0,196.0,68.0,70.0,-223.0
2035,127.0,-970.0,234.0,86.0,70.0,-215.0
2036,102.0,-988.0,218.0,71.0,86.0,-208.0
2037,108.0,-1016.0,175.0,72.0,96.0,-212.0
2038,119.0,-989.0,183.0,110.0,93.0,-198.0
2039,136.0,-943.0,236.0,136.0,76.0,-157.0
2040,149.0,-930.0,252.0,103.0,72.0,-108.0
2041,111.0,-975.0,218.0,-41.0,82.0,-76.0
2042,109.0,-985.0,218.0,-45.0,83.0,-64.0
2043,107.0,-991.0,211.0,-47.0,82.0,-58.0
2044,116.0,-991.0,208.0,-45.0,80.0,-55.0
2045,112.0,-983.0,213.0,-37.0,80.0,-43.0
2046,101.0,-970.0,222.0,-32.0,83.0,-38.0
2047,104.0,-960.0,224.0,-31.0,79.0,-37.0
2048,97.0,-956.0,230.0,-40.0,80.0,30.0
2049,106.0,-971.0,215.0,-47.0,88.0,24.0
2050,101.0,-980.0,206.0,-35.0,99.0,24.0
2051,94.0,-986.0,205.0,-14.0,103.0,24.0
2052,100.0,-985.0,203.0,7.0,98.0,23.0
2053,99.0,-980.0,209.0,29.0,92.0,27.0
2054,101.0,-974.0,216.0,49.0,87.0,35.0
2055,101.0,-977.0,215.0,62.0,86.0,41.0
2056,105.0,-971.0,221.0,76.0,83.0,49.0
2057,92.0,-970.0,226.0,88.0,84.0,58.0
2058,80.0,-980.0,231.0,91.0,82.0,58.0
2059,80.0,-999.0,245.0,85.0,72.0,38.0
2060,379.0,-850.0,-32.0,2434.0,457.0,-103.0
2061,-17.0,10.0,-48.0,1089.0,469.0,-38.0
2062,-179.0,-28.0,-330.0,538.0,326.0,-35.0
2063,-30.0,-21.0,-697.0,20.0,7.0,-57.0
2064,-402.0,138.0,-631.0,-524.0,-135.0,-50.0
2065,75.0,-172.0,-658.0,-1231.0,-806.0,31.0
2066,565.0,-248.0,-717.0,-1609.0,-1069.0,-6.0
2067,508.0,-384.0,-690.0,-1938.0,-725.0,-17.0
2068,579.0,-535.0,-697.0,-2211.0,-499.0,-72.0
2069,468.0,-539.0,-634.0,-2336.0,-198.0,-173.0
2070,353.0,-644.0,-588.0,-2513.0,26.0,-242.0
2071,289.0,-685.0,-523.0,-2627.0,148.0,-290.0
2072,251.0,-826.0,-319.0,-2849.0,309.0,-187.0
2073,326.0,-1014.0,466.0,-865.0,472.0,-244.0
2074,233.0,-931.0,506.0,-772.0,670.0,-331.0
2075,54.0,-765.0,577.0,-741.0,855.0,-356.0
2076,-138.0,-769.0,633.0,-853.0,962.0,-206.0
2077,-192.0,-1041.0,622.0,-941.0,932.0,64.0
2078,-107.0,-1103.0,602.0,-730.0,843.0,241.0
2079,-131.0,-1057.0,643.0,-430.0,815.0,221.0
2080,-217.0,-1094.0,718.0,-169.0,749.0,129.0
2081,-507.0,-1417.0,807.0,241.0,615.0,274.0
2082,-429.0,15.0,818.0,978.0,193.0,632.0
2083,-137.0,-466.0,535.0,173.0,-50.0,423.0
2084,114.0,-874.0,260.0,1051.0,-102.0,212.0
2085,114.0,-980.0,155.0,255.0,180.0,-27.0
2086,87.0,-979.0,167.0,250.0,189.0,-44.0
2087,111.0,-968.0,183.0,238.0,175.0,-60.0
2088,110.0,-956.0,205.0,214.0,164.0,-62.0
2089,121.0,-983.0,179.0,174.0,147.0,-58.0
2090,104.0,-987.0,168.0,163.0,137.0,-55.0
2091,104.0,-967.0,192.0,173.0,126.0,-61.0
2092,121.0,-964.0,193.0,165.0,119.0,-70.0
2093,119.0,-963.0,190.0,153.0,122.0,-70.0
2094,118.0,-961.0,196.0,141.0,124.0,-63.0
2095,115.0,-963.0,194.0,123.0,118.0,-54.0
2096,119.0,-974.0,183.0,104.0,113.0,-40.0
2097,132.0,-981.0,174.0,95.0,105.0,-21.0
2098,130.0,-979.0,182.0,97.0,100.0,1.0
2099,129.0,-1000.0,184.0,96.0,96.0,15.0
2100,117.0,-996.0,188.0,128.0,95.0,24.0
2101,90.0,-968.0,202.0,20.0,195.0,52.0
2102,88.0,-967.0,206.0,35.0,185.0,55.0
2103,87.0,-966.0,209.0,49.0,172.0,59.0
2104,88.0,-970.0,203.0,61.0,162.0,63.0
2105,87.0,-958.0,212.0,77.0,150.0,71.0
2106,86.0,-952.0,223.0,86.0,136.0,80.0
2107,96.0,-985.0,205.0,83.0,131.0,86.0
2108,104.0,-992.0,193.0,98.0,130.0,93.0
2109,90.0,-974.0,213.0,128.0,126.0,111.0
2110,82.0,-987.0,213.0,132.0,125.0,116.0
2111,79.0,-992.0,208.0,138.0,122.0,115.0
2112,99.0,-976.0,218.0,153.0,108.0,122.0
2113,90.0,-988.0,217.0,153.0,106.0,140.0
2114,81.0,-988.0,217.0,160.0,107.0,147.0
2115,78.0,-968.0,234.0,171.0,104.0,149.0
2116,35.0,-968.0,258.0,168.0,116.0,143.0
2117,32.0,-1145.0,271.0,334.0,156.0,325.0
2118,10.0,-1395.0,310.0,906.0,278.0,665.0
2119,57.0,-1362.0,293.0,1187.0,257.0,879.0
2120,52.0,-1417.0,312.0,1369.0,272.0,971.0
2121,-42.0,-1304.0,345.0,1568.0,326.0,998.0
2122,-77.0,-1321.0,376.0,1588.0,296.0,839.0
2123,-107.0,-1392.0,390.0,1592.0,238.0,619.0
2124,-127.0,-1293.0,391.0,1652.0,167.0,385.0
2125,-106.0,-1471.0,366.0,1617.0,85.0,182.0
2126,-86.0,-1432.0,368.0,1771.0,45.0,117.0
2127,-80.0,-1426.0,339.0,1878.0,16.0,66.0
2128,-65.0,-1444.0,310.0,1959.0,-18.0,40.0
2129,32.0,-714.0,316.0,3095.0,579.0,205.0
2130,-55.0,-405.0,388.0,2952.0,540.0,184.0
2131,-57.0,-69.0,448.0,2559.0,384.0,169.0
2132,42.0,178.0,463.0,1930.0,186.0,181.0
2133,-5.0,228.0,414.0,1121.0,79.0,217.0
2134,72.0,153.0,-45.0,396.0,-80.0,293.0
2135,-442.0,210.0,-285.0,-308.0,-35.0,434.0
2136,52.0,-392.0,-322.0,-1293.0,-752.0,736.0
2137,808.0,-757.0,-371.0,-1532.0,-1257.0,812.0
2138,541.0,-204.0,-301.0,-1145.0,-610.0,514.0
2139,357.0,107.0,-317.0,-1430.0,-316.0,327.0
2140,207.0,-1196.0,171.0,-3534.0,40.0,-519.0
2141,-478.0,-1017.0,778.0,-1486.0,505.0,-722.0
2142,-499.0,-1144.0,738.0,-1749.0,392.0,-461.0
2143,-500.0,-1189.0,753.0,-1812.0,362.0,-388.0
2144,-308.0,-1229.0,784.0,-1744.0,348.0,-327.0
2145,-15.0,-1113.0,831.0,-1538.0,433.0,-187.0
2146,40.0,-962.0,943.0,-1331.0,749.0,-112.0
2147,76.0,-849.0,1068.0,-1173.0,998.0,-133.0
2148,11.0,-935.0,1198.0,-1036.0,1134.0,-202.0
2149,-455.0,-1099.0,1299.0,-798.0,1277.0,-356.0
2150,-798.0,-1135.0,1323.0,-409.0,1119.0,-325.0
2151,-775.0,-1144.0,1236.0,0.0,687.0,-54.0
2152,363.0,-620.0,748.0,1625.0,-364.0,422.0
2153,209.0,-944.0,107.0,238.0,-24.0,2.0
2154,219.0,-931.0,129.0,235.0,-53.0,93.0
2155,191.0,-923.0,136.0,234.0,-53.0,151.0
2156,187.0,-932.0,127.0,220.0,-38.0,176.0
2157,198.0,-955.0,104.0,201.0,-29.0,207.0
2158,227.0,-976.0,111.0,198.0,-42.0,247.0
2159,204.0,-948.0,150.0,205.0,-27.0,292.0
2160,137.0,-964.0,171.0,172.0,27.0,302.0
2161,101.0,-992.0,159.0,138.0,77.0,242.0
2162,115.0,-980.0,156.0,125.0,46.0,120.0
2163,115.0,-1000.0,149.0,116.0,106.0,119.0
2164,101.0,-985.0,159.0,131.0,115.0,112.0
2165,109.0,-972.0,171.0,137.0,109.0,108.0
2166,106.0,-969.0,177.0,133.0,108.0,107.0
2167,101.0,-963.0,180.0,125.0,112.0,104.0
2168,99.0,-961.0,183.0,117.0,116.0,99.0
2169,105.0,-969.0,183.0,107.0,118.0,93.0
2170,114.0,-967.0,184.0,101.0,125.0,91.0
2171,104.0,-963.0,188.0,96.0,141.0,89.0
2172,81.0,-962.0,188.0,89.0,161.0,82.0
2173,82.0,-963.0,183.0,79.0,162.0,72.0
2174,97.0,-976.0,182.0,62.0,140.0,72.0
2175,34.0,-977.0,212.0,143.0,201.0,166.0
2176,69.0,-1008.0,232.0,310.0,275.0,355.0
2177,96.0,-1022.0,235.0,322.0,287.0,411.0
2178,114.0,-1048.0,234.0,334.0,322.0,478.0
2179,63.0,-1075.0,232.0,348.0,372.0,550.0
2180,55.0,-1110.0,240.0,367.0,391.0,599.0
2181,112.0,-1167.0,245.0,394.0,415.0,651.0
2182,214.0,-1196.0,242.0,450.0,467.0,729.0
2183,215.0,-1237.0,246.0,530.0,584.0,832.0
2184,176.0,-1267.0,262.0,661.0,723.0,897.0
2185,140.0,-1273.0,279.0,804.0,815.0,866.0
2186,41.0,-1394.0,314.0,926.0,896.0,689.0
2187,-189.0,-1038.0,350.0,1670.0,303.0,232.0
2188,77.0,-624.0,508.0,1369.0,491.0,180.0
2189,12.0,-512.0,387.0,1203.0,465.0,152.0
2190,7.0,-325.0,405.0,972.0,333.0,145.0
2191,303.0,-582.0,180.0,560.0,116.0,142.0
2192,-298.0,-520.0,59.0,412.0,337.0,53.0
2193,-273.0,-495.0,53.0,195.0,-66.0,53.0
2194,203.0,-506.0,-26.0,12.0,-708.0,-8.0
2195,287.0,-331.0,-25.0,-109.0,-648.0,-89.0
2196,387.0,-286.0,-73.0,-395.0,-530.0,62.0
2197,443.0,-298.0,-111.0,-735.0,-324.0,184.0
2198,364.0,-342.0,-116.0,-1067.0,-32.0,162.0
2199,198.0,-1010.0,223.0,-2414.0,-128.0,-336.0
2200,229.0,-1282.0,174.0,-2027.0,-947.0,-921.0
2201,128.0,-1470.0,216.0,-2012.0,-776.0,-859.0
2202,167.0,-1259.0,245.0,-1878.0,-653.0,-730.0
2203,167.0,-1656.0,232.0,-1953.0,-487.0,-671.0
2204,143.0,-1514.0,294.0,-1592.0,-311.0,-658.0
2205,101.0,-1448.0,321.0,-1372.0,-127.0,-686.0
2206,72.0,-1410.0,336.0,-1246.0,13.0,-758.0
2207,-4.0,-1345.0,360.0,-1134.0,159.0,-770.0
2208,-50.0,-1360.0,370.0,-1101.0,262.0,-725.0
2209,-1.0,-1409.0,368.0,-1038.0,328.0,-645.0
2210,-13.0,-1431.0,381.0,-902.0,466.0,-597.0
2211,-509.0,-828.0,1036.0,-515.0,-158.0,-15.0
2212,1901.0,-1959.0,-1958.0,-220.0,-417.0,-634.0
2213,213.0,-1959.0,-1958.0,2365.0,1209.0,102.0
2214,-464.0,-647.0,-915.0,6078.0,1428.0,-18.0
2215,-637.0,911.0,1152.0,5169.0,544.0,-98.0
2216,11.0,-608.0,1915.0,2434.0,-63.0,-542.0
2217,526.0,175.0,1646.0,1986.0,-143.0,-769.0
2218,770.0,-561.0,103.0,794.0,248.0,-265.0
2219,244.0,-1564.0,-102.0,-24.0,416.0,353.0
2220,-90.0,-673.0,515.0,681.0,66.0,520.0
2221,127.0,-982.0,170.0,287.0,-161.0,428.0
2222,89.0,-969.0,192.0,103.0,32.0,210.0
2223,137.0,-988.0,121.0,149.0,35.0,135.0
2224,124.0,-972.0,155.0,177.0,37.0,106.0
2225,135.0,-952.0,183.0,168.0,52.0,63.0
2226,130.0,-964.0,175.0,138.0,76.0,30.0
2227,113.0,-965.0,170.0,124.0,81.0,3.0
2228,89.0,-977.0,172.0,112.0,70.0,-28.0
2229,115.0,-981.0,152.0,92.0,29.0,-64.0
2230,155.0,-975.0,150.0,89.0,-7.0,-80.0
2231,172.0,-972.0,151.0,88.0,-17.0,-70.0
2232,168.0,-967.0,154.0,85.0,-13.0,-52.0
2233,152.0,-968.0,159.0,82.0,-7.0,-35.0
2234,154.0,-961.0,170.0,67.0,44.0,-3.0
2235,150.0,-964.0,171.0,59.0,46.0,-3.0
2236,163.0,-966.0,162.0,53.0,44.0,-5.0
2237,160.0,-970.0,157.0,52.0,49.0,1.0
2238,141.0,-971.0,166.0,54.0,53.0,4.0
2239,163.0,-966.0,164.0,53.0,47.0,-2.0
2240,176.0,-969.0,160.0,49.0,56.0,1.0
2241,164.0,-965.0,171.0,46.0,72.0,10.0
2242,160.0,-975.0,175.0,-2.0,222.0,113.0
2243,171.0,-997.0,151.0,-4.0,235.0,128.0
2244,145.0,-979.0,173.0,16.0,249.0,150.0
2245,130.0,-974.0,182.0,21.0,256.0,159.0
2246,130.0,-977.0,177.0,17.0,261.0,147.0
2247,135.0,-968.0,179.0,22.0,273.0,134.0
2248,118.0,-982.0,179.0,25.0,291.0,126.0
2249,100.0,-978.0,182.0,29.0,308.0,104.0
2250,139.0,-974.0,180.0,35.0,296.0,84.0
2251,156.0,-972.0,177.0,47.0,295.0,102.0
2252,164.0,-974.0,177.0,60.0,299.0,140.0
2253,57.0,-963.0,210.0,157.0,220.0,240.0
2254,63.0,-941.0,226.0,23.0,118.0,223.0
2255,23.0,-977.0,214.0,-7.0,151.0,294.0
2256,28.0,-980.0,212.0,-13.0,153.0,284.0
2257,29.0,-978.0,211.0,-17.0,158.0,277.0
2258,15.0,-964.0,220.0,-18.0,171.0,268.0
2259,-5.0,-957.0,226.0,-27.0,182.0,251.0
2260,-19.0,-955.0,228.0,-42.0,189.0,224.0
2261,-29.0,-959.0,227.0,-55.0,191.0,187.0
2262,-33.0,-971.0,215.0,-65.0,190.0,147.0
2263,-32.0,-986.0,207.0,-61.0,185.0,110.0
2264,-27.0,-1000.0,195.0,-49.0,182.0,69.0
2265,5.0,-1049.0,176.0,-21.0,180.0,30.0
2266,136.0,-981.0,224.0,207.0,227.0,-99.0
2267,64.0,-960.0,213.0,180.0,288.0,-108.0
2268,78.0,-915.0,229.0,129.0,280.0,-155.0
2269,72.0,-962.0,250.0,47.0,280.0,-200.0
2270,57.0,-966.0,235.0,15.0,291.0,-271.0
2271,69.0,-950.0,217.0,-16.0,306.0,-421.0
2272,60.0,-964.0,231.0,-58.0,308.0,-531.0
2273,94.0,-948.0,246.0,-73.0,299.0,-553.0
2274,55.0,-980.0,246.0,-82.0,330.0,-490.0
2275,120.0,-950.0,220.0,-56.0,312.0,-429.0
2276,525.0,-1333.0,818.0,-1365.0,1961.0,190.0
2277,26.0,-1073.0,411.0,278.0,3659.0,-583.0
2278,260.0,-929.0,-333.0,296.0,3202.0,-319.0
2279,329.0,-945.0,-346.0,239.0,3274.0,-295.0
2280,351.0,-880.0,-316.0,195.0,3365.0,-282.0
2281,449.0,-942.0,-398.0,95.0,3473.0,-229.0
2282,418.0,-879.0,-425.0,31.0,3651.0,-99.0
2283,442.0,-799.0,-469.0,-52.0,3702.0,-39.0
2284,560.0,-870.0,-524.0,-214.0,3745.0,-122.0
2285,398.0,-926.0,-515.0,-300.0,3890.0,-209.0
2286,529.0,-864.0,-483.0,-310.0,3861.0,-229.0
2287,557.0,-870.0,-474.0,-410.0,3906.0,-278.0
2288,641.0,-891.0,-445.0,-498.0,3955.0,-331.0
2289,243.0,-1098.0,116.0,828.0,-356.0,-832.0
2290,107.0,-991.0,227.0,13.0,-10.0,-36.0
2291,83.0,-976.0,221.0,5.0,-4.0,-63.0
2292,66.0,-977.0,200.0,-6.0,-4.0,-92.0
2293,65.0,-950.0,233.0,4.0,-20.0,-117.0
2294,38.0,-960.0,249.0,-17.0,-27.0,-147.0
2295,89.0,-972.0,235.0,-50.0,-60.0,-202.0
2296,126.0,-975.0,228.0,-64.0,-72.0,-226.0
2297,147.0,-981.0,215.0,-76.0,-64.0,-222.0
2298,146.0,-981.0,210.0,-80.0,-42.0,-210.0
2299,131.0,-979.0,206.0,-80.0,-22.0,-197.0
2300,116.0,-985.0,202.0,-84.0,-2.0,-196.0
2301,139.0,-965.0,190.0,-87.0,131.0,-101.0
2302,160.0,-956.0,193.0,-190.0,198.0,-172.0
2303,158.0,-971.0,176.0,-208.0,216.0,-178.0
2304,156.0,-968.0,178.0,-209.0,234.0,-179.0
2305,158.0,-968.0,177.0,-212.0,247.0,-182.0
2306,165.0,-967.0,172.0,-215.0,257.0,-185.0
2307,148.0,-977.0,159.0,-214.0,271.0,-179.0
2308,168.0,-986.0,148.0,-204.0,269.0,-178.0
2309,171.0,-971.0,157.0,-181.0,266.0,-165.0
2310,168.0,-972.0,161.0,-173.0,265.0,-150.0
2311,169.0,-972.0,159.0,-172.0,265.0,-138.0
2312,163.0,-976.0,156.0,-170.0,266.0,-124.0
2313,168.0,-978.0,150.0,45.0,173.0,47.0
2314,160.0,-984.0,143.0,52.0,166.0,66.0
2315,148.0,-976.0,157.0,66.0,158.0,79.0
2316,149.0,-972.0,165.0,73.0,147.0,84.0
2317,172.0,-992.0,142.0,72.0,135.0,85.0
2318,153.0,-988.0,155.0,86.0,143.0,89.0
2319,143.0,-978.0,170.0,89.0,144.0,84.0
2320,136.0,-999.0,125.0,72.0,150.0,70.0
2321,144.0,-976.0,148.0,82.0,157.0,51.0
2322,118.0,-919.0,240.0,-753.0,240.0,-490.0
2323,333.0,-940.0,315.0,640.0,2397.0,-208.0
2324,308.0,-898.0,249.0,674.0,2445.0,-212.0
2325,264.0,-869.0,187.0,672.0,2499.0,-192.0
2326,262.0,-901.0,111.0,635.0,2535.0,-165.0
2327,225.0,-894.0,60.0,641.0,2584.0,-166.0
2328,188.0,-891.0,16.0,644.0,2616.0,-190.0
2329,137.0,-887.0,-21.0,641.0,2629.0,-199.0
2330,101.0,-897.0,-51.0,621.0,2613.0,-217.0
2331,53.0,-936.0,-78.0,596.0,2582.0,-224.0
2332,-29.0,-955.0,-92.0,594.0,2532.0,-208.0
2333,-37.0,-928.0,-66.0,595.0,2416.0,-178.0
2334,81.0,-918.0,-79.0,83.0,583.0,-104.0
2335,25.0,-839.0,-398.0,-280.0,478.0,-361.0
2336,82.0,-1010.0,203.0,105.0,-41.0,-170.0
2337,147.0,-979.0,240.0,85.0,-76.0,-131.0
2338,142.0,-967.0,294.0,48.0,-87.0,-74.0
2339,183.0,-980.0,279.0,-16.0,-113.0,-42.0
2340,129.0,-997.0,240.0,-64.0,-95.0,-1.0
2341,52.0,-1050.0,205.0,-77.0,-70.0,8.0
2342,70.0,-1063.0,150.0,-33.0,-83.0,-37.0
2343,145.0,-1091.0,144.0,52.0,-90.0,-68.0
2344,158.0,-1101.0,163.0,143.0,-57.0,-58.0
2345,158.0,-1061.0,125.0,212.0,-16.0,-35.0
2346,84.0,-987.0,191.0,281.0,15.0,14.0
2347,87.0,-941.0,245.0,-80.0,25.0,-94.0
2348,116.0,-979.0,194.0,-63.0,70.0,-43.0
2349,117.0,-974.0,203.0,-48.0,67.0,-32.0
2350,110.0,-963.0,216.0,-37.0,65.0,-24.0
2351,121.0,-964.0,212.0,-38.0,62.0,-22.0
2352,118.0,-958.0,216.0,-37.0,64.0,-15.0
2353,121.0,-961.0,212.0,-38.0,66.0,-11.0
2354,113.0,-964.0,210.0,-36.0,73.0,-8.0
2355,108.0,-977.0,190.0,-34.0,78.0,-9.0
2356,117.0,-975.0,191.0,-20.0,76.0,-8.0
2357,132.0,-975.0,197.0,-68.0,102.0,1.0
2358,138.0,-975.0,195.0,-66.0,113.0,14.0
2359,132.0,-965.0,203.0,-59.0,124.0,32.0
2360,127.0,-969.0,200.0,-58.0,131.0,51.0
2361,106.0,-977.0,201.0,-57.0,140.0,70.0
2362,96.0,-981.0,197.0,-53.0,140.0,80.0
2363,86.0,-1005.0,188.0,-44.0,134.0,81.0
2364,103.0,-1021.0,173.0,-30.0,125.0,76.0
2365,104.0,-1010.0,182.0,-2.0,120.0,80.0
2366,100.0,-999.0,191.0,18.0,115.0,87.0
2367,108.0,-1010.0,195.0,27.0,109.0,90.0
2368,60.0,-980.0,211.0,4.0,87.0,90.0
2369,63.0,-982.0,206.0,1.0,84.0,75.0
2370,62.0,-982.0,207.0,2.0,84.0,64.0
2371,69.0,-980.0,209.0,0.0,85.0,55.0
2372,75.0,-977.0,207.0,0.0,86.0,50.0
2373,80.0,-969.0,210.0,2.0,87.0,53.0
2374,73.0,-962.0,214.0,1.0,93.0,57.0
2375,74.0,-956.0,216.0,-1.0,94.0,60.0
2376,69.0,-950.0,218.0,-5.0,96.0,63.0
2377,59.0,-948.0,220.0,-9.0,101.0,63.0
2378,50.0,-945.0,224.0,-15.0,105.0,53.0
2379,85.0,-1049.0,189.0,83.0,105.0,105.0
2380,73.0,-1083.0,194.0,119.0,102.0,132.0
2381,87.0,-1103.0,175.0,161.0,100.0,142.0
2382,78.0,-1089.0,203.0,221.0,102.0,159.0
2383,74.0,-1106.0,209.0,243.0,100.0,176.0
2384,78.0,-1140.0,214.0,256.0,94.0,192.0
2385,84.0,-1191.0,225.0,263.0,79.0,213.0
2386,111.0,-1268.0,213.0,293.0,77.0,233.0
2387,131.0,-1343.0,213.0,382.0,106.0,260.0
2388,150.0,-1416.0,222.0,523.0,161.0,293.0
2389,122.0,-1453.0,236.0,724.0,229.0,288.0
2390,298.0,-510.0,-787.0,-517.0,178.0,-282.0
2391,-75.0,-923.0,-319.0,-1699.0,515.0,-296.0
2392,30.0,-1095.0,-94.0,-1827.0,44.0,-314.0
2393,70.0,-1144.0,-49.0,-1928.0,-41.0,-310.0
2394,75.0,-1252.0,16.0,-2021.0,-83.0,-277.0
2395,97.0,-1338.0,89.0,-2038.0,-114.0,-224.0
2396,100.0,-1360.0,164.0,-1982.0,-126.0,-196.0
2397,140.0,-1370.0,222.0,-1922.0,-140.0,-192.0
2398,175.0,-1383.0,269.0,-1858.0,-118.0,-194.0
2399,172.0,-1358.0,309.0,-1778.0,-52.0,-212.0
2400,130.0,-1343.0,345.0,-1722.0,32.0,-242.0
2401,65.0,-1344.0,378.0,-1665.0,107.0,-264.0
2402,36.0,-1351.0,413.0,-1592.0,147.0,-267.0
2403,-164.0,-808.0,442.0,-394.0,312.0,-178.0
2404,-22.0,-840.0,389.0,-442.0,236.0,-134.0
2405,2.0,-931.0,368.0,-444.0,252.0,-148.0
2406,-10.0,-993.0,344.0,-339.0,274.0,-146.0
2407,23.0,-915.0,312.0,-163.0,285.0,-135.0
2408,38.0,-848.0,265.0,-74.0,333.0,-134.0
2409,52.0,-857.0,203.0,-70.0,395.0,-125.0
2410,52.0,-901.0,164.0,-67.0,456.0,-103.0
2411,35.0,-969.0,155.0,-33.0,509.0,-89.0
2412,11.0,-975.0,168.0,63.0,536.0,-79.0
2413,-16.0,-960.0,186.0,159.0,531.0,-69.0
2414,261.0,-1074.0,434.0,1565.0,477.0,-275.0
2415,170.0,-968.0,112.0,302.0,105.0,109.0
2416,146.0,-962.0,121.0,296.0,109.0,135.0
2417,120.0,-982.0,97.0,280.0,115.0,148.0
2418,121.0,-998.0,80.0,281.0,107.0,142.0
2419,136.0,-974.0,109.0,297.0,100.0,129.0
2420,158.0,-953.0,137.0,295.0,112.0,117.0
2421,120.0,-961.0,155.0,268.0,155.0,114.0
2422,66.0,-970.0,152.0,235.0,186.0,97.0
2423,84.0,-1003.0,108.0,201.0,186.0,63.0
2424,118.0,-991.0,127.0,209.0,162.0,44.0
2425,129.0,-961.0,159.0,215.0,141.0,57.0
2426,94.0,-986.0,144.0,29.0,122.0,21.0
2427,96.0,-963.0,177.0,78.0,88.0,64.0
2428,91.0,-978.0,163.0,60.0,89.0,69.0
2429,87.0,-987.0,152.0,56.0,94.0,68.0
2430,90.0,-973.0,168.0,64.0,94.0,66.0
2431,86.0,-969.0,172.0,56.0,101.0,65.0
2432,80.0,-976.0,161.0,45.0,103.0,67.0
2433,82.0,-973.0,166.0,46.0,100.0,69.0
2434,98.0,-967.0,174.0,44.0,93.0,76.0
2435,95.0,-973.0,171.0,38.0,95.0,90.0
2436,85.0,-970.0,175.0,35.0,102.0,99.0
2437,68.0,-976.0,179.0,69.0,103.0,174.0
2438,48.0,-966.0,193.0,86.0,113.0,183.0
2439,45.0,-968.0,196.0,84.0,122.0,178.0
2440,34.0,-962.0,199.0,78.0,132.0,174.0
2441,17.0,-981.0,187.0,65.0,136.0,170.0
2442,31.0,-981.0,183.0,72.0,126.0,165.0
2443,56.0,-973.0,191.0,76.0,112.0,179.0
2444,23.0,-981.0,186.0,77.0,114.0,209.0
2445,6.0,-984.0,188.0,87.0,100.0,223.0
2446,4.0,-996.0,176.0,97.0,79.0,225.0
2447,-40.0,-1337.0,243.0,504.0,393.0,983.0
2448,-42.0,-1552.0,117.0,2449.0,-446.0,465.0
2449,12.0,-1541.0,176.0,2562.0,-416.0,438.0
2450,104.0,-1590.0,227.0,2681.0,-312.0,434.0
2451,-229.0,-1392.0,104.0,2916.0,32.0,447.0
2452,-119.0,-1171.0,128.0,2959.0,-87.0,426.0
2453,-132.0,-1034.0,330.0,2843.0,-127.0,416.0
2454,-256.0,-914.0,560.0,2720.0,-147.0,419.0
2455,-154.0,-916.0,484.0,2542.0,-309.0,482.0
2456,-17.0,-768.0,337.0,2467.0,-449.0,541.0
2457,125.0,-536.0,243.0,2339.0,-532.0,551.0
2458,202.0,-424.0,201.0,2055.0,-504.0,515.0
2459,162.0,-378.0,-175.0,-1925.0,-765.0,427.0
2460,-189.0,-1404.0,454.0,-2401.0,-540.0,-659.0
2461,-128.0,-1414.0,444.0,-2332.0,-685.0,-661.0
2462,-31.0,-1422.0,424.0,-2241.0,-813.0,-679.0
2463,60.0,-1440.0,403.0,-2135.0,-888.0,-702.0
2464,106.0,-1452.0,390.0,-2010.0,-898.0,-726.0
2465,140.0,-1447.0,381.0,-1866.0,-863.0,-739.0
2466,139.0,-1406.0,391.0,-1715.0,-771.0,-751.0
2467,134.0,-1265.0,419.0,-1597.0,-643.0,-758.0
2468,85.0,-1148.0,437.0,-1626.0,-481.0,-732.0
2469,73.0,-1164.0,426.0,-1789.0,-342.0,-647.0
2470,-411.0,-1028.0,389.0,-576.0,2069.0,-431.0
2471,-479.0,-1014.0,409.0,-432.0,1865.0,-462.0
2472,-527.0,-992.0,423.0,-292.0,1596.0,-413.0
2473,-558.0,-991.0,431.0,-166.0,1288.0,-333.0
2474,-529.0,-997.0,443.0,-33.0,953.0,-253.0
2475,-499.0,-977.0,460.0,114.0,639.0,-182.0
2476,-466.0,-952.0,459.0,243.0,351.0,-126.0
2477,-543.0,-957.0,468.0,350.0,89.0,-67.0
2478,-502.0,-969.0,475.0,450.0,-239.0,9.0
2479,-392.0,-989.0,503.0,554.0,-561.0,99.0
2480,-404.0,-879.0,480.0,721.0,-828.0,341.0
2481,-145.0,-970.0,182.0,98.0,-1185.0,260.0
2482,102.0,-990.0,76.0,185.0,72.0,-25.0
2483,127.0,-969.0,104.0,209.0,87.0,-51.0
2484,124.0,-978.0,100.0,209.0,98.0,-62.0
2485,150.0,-989.0,89.0,201.0,107.0,-67.0
2486,154.0,-977.0,116.0,199.0,119.0,-55.0
2487,127.0,-965.0,131.0,184.0,133.0,-37.0
2488,92.0,-988.0,127.0,157.0,148.0,-40.0
2489,113.0,-991.0,112.0,143.0,136.0,-55.0
2490,105.0,-991.0,118.0,138.0,123.0,-51.0
2491,100.0,-988.0,131.0,134.0,106.0,-52.0
2492,112.0,-978.0,145.0,128.0,83.0,-52.0
2493,120.0,-981.0,128.0,107.0,67.0,-48.0
2494,113.0,-982.0,136.0,-15.0,108.0,29.0
2495,52.0,-1001.0,189.0,368.0,194.0,227.0
2496,42.0,-1024.0,186.0,351.0,176.0,247.0
2497,50.0,-1021.0,194.0,360.0,144.0,266.0
2498,72.0,-1052.0,193.0,353.0,122.0,285.0
2499,106.0,-1137.0,193.0,366.0,122.0,320.0
2500,67.0,-1177.0,197.0,439.0,153.0,375.0
2501,-18.0,-1270.0,259.0,570.0,159.0,466.0
2502,-47.0,-1231.0,315.0,853.0,143.0,629.0
2503,7.0,-1226.0,242.0,1041.0,155.0,648.0
2504,-8.0,-1311.0,231.0,1168.0,159.0,668.0
2505,-72.0,-1467.0,242.0,1375.0,147.0,729.0
2506,263.0,-1754.0,49.0,3260.0,448.0,-303.0
2507,-185.0,-301.0,-181.0,-2193.0,633.0,264.0
2508,-153.0,-343.0,-138.0,-2381.0,376.0,205.0
2509,-9.0,-429.0,-100.0,-2559.0,102.0,181.0
2510,73.0,-534.0,-56.0,-2697.0,-56.0,146.0
2511,113.0,-609.0,-12.0,-2758.0,-164.0,85.0
2512,170.0,-634.0,10.0,-2785.0,-258.0,0.0
2513,285.0,-692.0,10.0,-2828.0,-321.0,-99.0
2514,413.0,-757.0,23.0,-2857.0,-290.0,-207.0
2515,-150.0,-1451.0,442.0,-1931.0,-1285.0,-803.0
2516,-73.0,-1612.0,469.0,-1825.0,-1306.0,-752.0
2517,2.0,-947.0,494.0,-1462.0,-1272.0,-599.0
2518,15.0,-1511.0,448.0,-1884.0,-1092.0,-556.0
2519,130.0,-1084.0,419.0,-1744.0,-929.0,-536.0
2520,29.0,-1315.0,410.0,-1904.0,-675.0,-474.0
2521,6.0,-1444.0,398.0,-1901.0,-523.0,-489.0
2522,-11.0,-1236.0,415.0,-1620.0,-379.0,-417.0
2523,-29.0,-1327.0,391.0,-1659.0,-230.0,-378.0
2524,-22.0,-1275.0,391.0,-1559.0,-103.0,-375.0
2525,-96.0,-1218.0,398.0,-1478.0,42.0,-349.0
2526,-133.0,-910.0,521.0,-70.0,231.0,58.0
2527,-618.0,-683.0,-386.0,3697.0,1732.0,0.0
2528,-635.0,-978.0,473.0,2799.0,1292.0,-455.0
2529,-315.0,-849.0,1001.0,2426.0,538.0,-579.0
2530,169.0,-786.0,675.0,2126.0,54.0,-613.0
2531,329.0,-817.0,5.0,1816.0,63.0,-537.0
2532,265.0,-995.0,-394.0,1588.0,228.0,-331.0
2533,343.0,-955.0,-51.0,1570.0,221.0,-163.0
2534,-129.0,-666.0,498.0,1565.0,334.0,-40.0
2535,169.0,-642.0,508.0,1155.0,30.0,-34.0
2536,230.0,-744.0,508.0,777.0,-69.0,69.0
2537,92.0,-866.0,321.0,459.0,56.0,167.0
2538,153.0,-977.0,142.0,25.0,121.0,-70.0
2539,135.0,-988.0,167.0,159.0,63.0,96.0
2540,123.0,-983.0,170.0,166.0,67.0,93.0
2541,119.0,-969.0,174.0,172.0,62.0,83.0
2542,131.0,-959.0,187.0,168.0,56.0,78.0
2543,138.0,-958.0,192.0,159.0,55.0,82.0
2544,126.0,-968.0,183.0,144.0,66.0,84.0
2545,105.0,-960.0,191.0,139.0,74.0,76.0
2546,106.0,-951.0,204.0,128.0,70.0,57.0
2547,121.0,-954.0,201.0,104.0,68.0,39.0
2548,112.0,-959.0,196.0,82.0,74.0,32.0
2549,122.0,-981.0,190.0,48.0,102.0,30.0
2550,119.0,-1002.0,181.0,55.0,108.0,35.0
2551,113.0,-994.0,184.0,78.0,112.0,36.0
2552,131.0,-977.0,187.0,101.0,106.0,40.0
2553,101.0,-972.0,198.0,113.0,117.0,51.0
2554,110.0,-956.0,211.0,120.0,112.0,48.0
2555,108.0,-962.0,206.0,113.0,111.0,50.0
2556,120.0,-971.0,200.0,111.0,113.0,50.0
2557,132.0,-963.0,205.0,119.0,115.0,60.0
2558,120.0,-956.0,212.0,123.0,127.0,79.0
2559,121.0,-959.0,213.0,116.0,137.0,87.0
2560,102.0,-982.0,211.0,107.0,156.0,71.0
2561,95.0,-986.0,206.0,111.0,164.0,67.0
2562,94.0,-970.0,219.0,124.0,163.0,64.0
2563,74.0,-960.0,218.0,122.0,166.0,56.0
2564,62.0,-931.0,231.0,120.0,161.0,40.0
2565,67.0,-914.0,243.0,104.0,149.0,21.0
2566,88.0,-909.0,250.0,72.0,140.0,7.0
2567,98.0,-925.0,243.0,36.0,148.0,0.0
2568,80.0,-936.0,238.0,6.0,165.0,-3.0
2569,82.0,-923.0,245.0,-70.0,74.0,91.0
2570,54.0,-928.0,242.0,-83.0,66.0,101.0
2571,29.0,-933.0,250.0,-93.0,45.0,94.0
2572,7.0,-937.0,245.0,-108.0,17.0,68.0
2573,63.0,-946.0,236.0,-116.0,-25.0,32.0
2574,94.0,-971.0,244.0,-116.0,-36.0,28.0
2575,86.0,-1012.0,217.0,-127.0,-17.0,40.0
2576,68.0,-1012.0,206.0,-118.0,-1.0,40.0
2577,72.0,-1021.0,212.0,-102.0,6.0,25.0
2578,77.0,-957.0,226.0,30.0,16.0,41.0
2579,68.0,-968.0,226.0,25.0,33.0,38.0
2580,54.0,-971.0,225.0,20.0,44.0,29.0
2581,59.0,-968.0,225.0,19.0,45.0,15.0
2582,78.0,-960.0,229.0,21.0,42.0,6.0
2583,78.0,-954.0,231.0,19.0,46.0,12.0
2584,75.0,-954.0,234.0,12.0,51.0,19.0
2585,58.0,-959.0,228.0,8.0,69.0,-1.0
2586,77.0,-962.0,227.0,5.0,63.0,-38.0
2587,81.0,-961.0,230.0,6.0,66.0,-25.0
2588,81.0,-960.0,228.0,4.0,72.0,-10.0
2589,67.0,-961.0,230.0,3.0,80.0,2.0
2590,66.0,-961.0,232.0,4.0,80.0,6.0
2591,61.0,-963.0,234.0,3.0,83.0,6.0
2592,60.0,-967.0,231.0,-1.0,84.0,4.0
2593,51.0,-966.0,233.0,-2.0,83.0,2.0
2594,56.0,-968.0,230.0,1.0,72.0,-1.0
2595,58.0,-971.0,230.0,4.0,64.0,-3.0
2596,55.0,-966.0,230.0,5.0,64.0,-5.0
2597,57.0,-972.0,233.0,-4.0,84.0,-8.0
2598,61.0,-973.0,230.0,-5.0,82.0,-11.0
2599,64.0,-971.0,229.0,-4.0,83.0,-10.0
2600,60.0,-970.0,233.0,-1.0,84.0,-6.0