sequence,AccelerometerX,AccelerometerY,AccelerometerZ,GyroscopeX,GyroscopeY,GyroscopeZ
76,54.0,-966.0,222.0,-27.0,154.0,-44.0
77,49.0,-963.0,222.0,-38.0,156.0,-46.0
78,27.0,-945.0,223.0,-46.0,159.0,-58.0
79,-49.0,-985.0,252.0,-74.0,161.0,-64.0
80,61.0,-968.0,178.0,-107.0,119.0,-94.0
81,-48.0,-929.0,257.0,-43.0,137.0,-99.0
82,-20.0,-966.0,223.0,-93.0,83.0,-130.0
83,33.0,-989.0,193.0,-90.0,27.0,-171.0
84,54.0,-993.0,191.0,-59.0,20.0,-184.0
85,73.0,-979.0,193.0,-33.0,2.0,-168.0
86,64.0,-960.0,216.0,-11.0,3.0,-153.0
87,54.0,-963.0,205.0,-8.0,23.0,-102.0
88,94.0,-975.0,209.0,111.0,-35.0,-160.0
89,110.0,-970.0,220.0,64.0,-64.0,-207.0
90,122.0,-949.0,235.0,8.0,11.0,-82.0
91,132.0,-963.0,225.0,-9.0,16.0,-83.0
92,128.0,-952.0,231.0,-8.0,24.0,-77.0
93,123.0,-947.0,235.0,-16.0,29.0,-70.0
94,115.0,-962.0,230.0,-32.0,32.0,-72.0
95,121.0,-979.0,221.0,-41.0,30.0,-82.0
96,133.0,-980.0,217.0,-36.0,28.0,-88.0
97,146.0,-980.0,216.0,-33.0,32.0,-85.0
98,148.0,-988.0,209.0,-36.0,43.0,-76.0
99,138.0,-982.0,216.0,-29.0,55.0,-67.0
100,145.0,-984.0,205.0,-29.0,64.0,-62.0
101,133.0,-983.0,211.0,-18.0,77.0,-31.0
102,115.0,-956.0,220.0,15.0,159.0,169.0
103,106.0,-947.0,227.0,21.0,160.0,159.0
104,92.0,-951.0,227.0,13.0,161.0,146.0
105,71.0,-957.0,226.0,5.0,160.0,125.0
106,56.0,-953.0,230.0,4.0,149.0,95.0
107,55.0,-936.0,236.0,3.0,127.0,63.0
108,79.0,-940.0,233.0,-10.0,102.0,37.0
109,104.0,-947.0,228.0,-19.0,89.0,24.0
110,117.0,-952.0,232.0,-24.0,85.0,26.0
111,129.0,-974.0,217.0,-41.0,85.0,34.0
112,127.0,-991.0,203.0,-39.0,99.0,43.0
113,107.0,-973.0,216.0,-1.0,105.0,-5.0
114,93.0,-976.0,208.0,-16.0,107.0,-27.0
115,93.0,-969.0,218.0,-6.0,104.0,-27.0
116,99.0,-970.0,216.0,-8.0,98.0,-27.0
117,96.0,-965.0,220.0,-6.0,96.0,-24.0
118,92.0,-964.0,221.0,-9.0,94.0,-23.0
119,89.0,-962.0,219.0,-11.0,91.0,-25.0
120,87.0,-969.0,214.0,-14.0,87.0,-30.0
121,88.0,-969.0,217.0,-9.0,84.0,-39.0
122,96.0,-963.0,221.0,-7.0,81.0,-44.0
123,99.0,-967.0,218.0,-15.0,81.0,-44.0
124,99.0,-967.0,220.0,-19.0,82.0,-43.0
125,103.0,-968.0,216.0,5.0,69.0,-29.0
126,103.0,-963.0,220.0,1.0,84.0,-12.0
127,88.0,-969.0,220.0,-8.0,89.0,-38.0
128,89.0,-964.0,219.0,-7.0,87.0,-47.0
129,93.0,-963.0,221.0,-6.0,85.0,-53.0
130,101.0,-971.0,215.0,-9.0,82.0,-57.0
131,107.0,-968.0,218.0,-4.0,82.0,-56.0
132,104.0,-967.0,214.0,-1.0,81.0,-49.0
133,86.0,-966.0,221.0,4.0,81.0,-52.0
134,87.0,-964.0,225.0,1.0,79.0,-66.0
135,93.0,-969.0,220.0,-8.0,78.0,-78.0
136,95.0,-962.0,224.0,-3.0,89.0,-15.0
137,106.0,-967.0,217.0,-7.0,86.0,-18.0
138,106.0,-962.0,221.0,-3.0,86.0,-17.0
139,104.0,-959.0,220.0,-4.0,87.0,-12.0
140,93.0,-959.0,223.0,-6.0,88.0,-11.0
141,96.0,-958.0,225.0,-8.0,84.0,-14.0
142,97.0,-965.0,220.0,-14.0,82.0,-19.0
143,101.0,-964.0,222.0,-15.0,80.0,-25.0
144,104.0,-973.0,214.0,-20.0,77.0,-27.0
145,106.0,-977.0,214.0,-20.0,77.0,-28.0
146,106.0,-974.0,213.0,-16.0,78.0,-29.0
147,111.0,-959.0,221.0,-9.0,69.0,-42.0
148,115.0,-969.0,215.0,16.0,84.0,-4.0
149,119.0,-977.0,209.0,19.0,84.0,-3.0
150,113.0,-972.0,215.0,29.0,86.0,0.0
151,111.0,-963.0,224.0,32.0,88.0,2.0
152,110.0,-968.0,219.0,19.0,90.0,0.0
153,108.0,-965.0,218.0,15.0,93.0,-1.0
154,106.0,-968.0,220.0,10.0,96.0,-4.0
155,110.0,-972.0,212.0,6.0,98.0,-9.0
156,112.0,-963.0,217.0,12.0,99.0,-7.0
157,109.0,-968.0,219.0,7.0,101.0,-4.0
158,110.0,-977.0,212.0,6.0,103.0,-1.0
159,108.0,-1031.0,223.0,49.0,95.0,26.0
160,246.0,-1250.0,240.0,144.0,258.0,-466.0
161,226.0,-1277.0,234.0,242.0,258.0,-477.0
162,174.0,-1284.0,233.0,373.0,284.0,-430.0
163,107.0,-1291.0,221.0,492.0,308.0,-358.0
164,29.0,-1243.0,195.0,616.0,313.0,-298.0
165,16.0,-1182.0,138.0,690.0,256.0,-276.0
166,34.0,-1091.0,78.0,741.0,208.0,-240.0
167,113.0,-987.0,17.0,748.0,188.0,-203.0
168,61.0,-923.0,-42.0,671.0,288.0,-165.0
169,-51.0,-789.0,-197.0,534.0,361.0,-68.0
170,9.0,-769.0,-365.0,286.0,296.0,73.0
171,31.0,-800.0,-434.0,105.0,333.0,168.0
172,15.0,-693.0,-441.0,63.0,388.0,211.0
173,-5.0,-688.0,-484.0,-110.0,432.0,217.0
174,-35.0,-639.0,-498.0,-228.0,468.0,223.0
175,-61.0,-661.0,-548.0,-511.0,489.0,266.0
176,415.0,-1194.0,204.0,-1652.0,-669.0,70.0
177,407.0,-1273.0,240.0,-1622.0,-521.0,99.0
178,281.0,-1258.0,322.0,-1494.0,-273.0,43.0
179,304.0,-1206.0,339.0,-1388.0,-144.0,20.0
180,297.0,-1161.0,350.0,-1309.0,16.0,67.0
181,283.0,-1160.0,314.0,-1271.0,168.0,111.0
182,240.0,-1140.0,305.0,-1191.0,293.0,110.0
183,189.0,-1081.0,311.0,-1093.0,375.0,95.0
184,186.0,-1023.0,305.0,-1041.0,391.0,101.0
185,209.0,-996.0,277.0,-1040.0,389.0,103.0
186,209.0,-997.0,231.0,-1044.0,411.0,48.0
187,177.0,-1005.0,190.0,-1025.0,437.0,-29.0
188,111.0,-992.0,186.0,-972.0,452.0,-70.0
189,56.0,-947.0,192.0,-922.0,429.0,-70.0
190,61.0,-950.0,179.0,-931.0,373.0,-39.0
191,40.0,-880.0,-77.0,-163.0,98.0,-13.0
192,29.0,-840.0,-60.0,-204.0,95.0,-14.0
193,33.0,-927.0,-57.0,-309.0,87.0,10.0
194,17.0,-997.0,-84.0,-301.0,109.0,35.0
195,12.0,-948.0,-106.0,-186.0,130.0,42.0
196,44.0,-943.0,-131.0,-157.0,127.0,48.0
197,73.0,-984.0,-149.0,-152.0,143.0,46.0
198,82.0,-978.0,-135.0,-92.0,182.0,33.0
199,58.0,-956.0,-113.0,-45.0,224.0,16.0
200,220.0,-1429.0,-916.0,665.0,335.0,-255.0
201,98.0,-995.0,-164.0,990.0,172.0,-164.0
202,95.0,-986.0,-115.0,1051.0,124.0,-184.0
203,127.0,-965.0,-94.0,1083.0,70.0,-205.0
204,147.0,-948.0,-58.0,1095.0,37.0,-203.0
205,199.0,-943.0,4.0,1075.0,16.0,-185.0
206,233.0,-945.0,17.0,994.0,42.0,-151.0
207,226.0,-940.0,10.0,914.0,122.0,-110.0
208,142.0,-958.0,135.0,542.0,129.0,-29.0
209,114.0,-941.0,171.0,505.0,140.0,-54.0
210,110.0,-992.0,97.0,417.0,131.0,-91.0
211,71.0,-1007.0,99.0,427.0,136.0,-141.0
212,119.0,-938.0,180.0,489.0,67.0,-186.0
213,118.0,-959.0,158.0,426.0,31.0,-201.0
214,136.0,-998.0,95.0,383.0,38.0,-233.0
215,146.0,-981.0,130.0,427.0,40.0,-260.0
216,176.0,-928.0,198.0,454.0,11.0,-267.0
217,191.0,-918.0,218.0,389.0,17.0,-262.0
218,195.0,-936.0,193.0,303.0,45.0,-251.0
219,201.0,-973.0,171.0,40.0,148.0,-297.0
220,195.0,-958.0,195.0,55.0,150.0,-292.0
221,216.0,-962.0,179.0,35.0,130.0,-278.0
222,200.0,-973.0,185.0,29.0,125.0,-253.0
223,206.0,-968.0,174.0,35.0,118.0,-235.0
224,253.0,-957.0,176.0,35.0,113.0,-230.0
225,213.0,-941.0,197.0,55.0,117.0,-189.0
226,211.0,-936.0,203.0,32.0,122.0,-183.0
227,200.0,-945.0,195.0,0.0,119.0,-174.0
228,255.0,-930.0,204.0,85.0,89.0,137.0
229,185.0,-976.0,194.0,40.0,111.0,5.0
230,213.0,-964.0,203.0,62.0,112.0,-15.0
231,202.0,-965.0,208.0,68.0,122.0,2.0
232,202.0,-966.0,209.0,69.0,129.0,6.0
233,207.0,-974.0,209.0,70.0,138.0,12.0
234,213.0,-986.0,205.0,73.0,149.0,18.0
235,186.0,-992.0,195.0,82.0,174.0,18.0
236,155.0,-1000.0,203.0,104.0,187.0,5.0
237,163.0,-1013.0,200.0,126.0,174.0,-31.0
238,210.0,-1018.0,184.0,152.0,157.0,-58.0
239,225.0,-990.0,199.0,199.0,162.0,-47.0
240,190.0,-966.0,220.0,230.0,179.0,-22.0
241,168.0,-983.0,224.0,227.0,183.0,-20.0
242,181.0,-985.0,225.0,240.0,169.0,-32.0
243,196.0,-988.0,231.0,249.0,157.0,-31.0
244,199.0,-1005.0,229.0,252.0,160.0,-25.0
245,210.0,-1001.0,224.0,268.0,156.0,-18.0
246,125.0,-1131.0,327.0,1043.0,104.0,-243.0
247,119.0,-1129.0,341.0,1089.0,95.0,-257.0
248,147.0,-1105.0,336.0,1145.0,70.0,-271.0
249,156.0,-1084.0,327.0,1184.0,68.0,-290.0
250,171.0,-1047.0,357.0,1232.0,63.0,-307.0
251,180.0,-1020.0,363.0,1252.0,63.0,-327.0
252,199.0,-1020.0,364.0,1257.0,66.0,-350.0
253,233.0,-1011.0,367.0,1285.0,65.0,-378.0
254,255.0,-1028.0,368.0,1302.0,80.0,-408.0
255,269.0,-1089.0,382.0,1313.0,102.0,-438.0
256,331.0,-1149.0,383.0,1365.0,97.0,-465.0
257,471.0,-1274.0,356.0,1506.0,167.0,-550.0
258,74.0,-625.0,-595.0,-1085.0,738.0,763.0
259,-107.0,-484.0,-681.0,-2500.0,-97.0,923.0
260,43.0,-426.0,-648.0,-2360.0,-252.0,909.0
261,184.0,-287.0,-557.0,-2351.0,-298.0,798.0
262,269.0,-255.0,-485.0,-2617.0,-247.0,673.0
263,188.0,-275.0,-392.0,-2939.0,-110.0,591.0
264,155.0,-435.0,-335.0,-3338.0,-100.0,575.0
265,237.0,-715.0,-319.0,-3654.0,-174.0,630.0
266,300.0,-900.0,-270.0,-3686.0,-179.0,680.0
267,319.0,-950.0,-173.0,-3553.0,-144.0,636.0
268,269.0,-962.0,-82.0,-3495.0,-121.0,517.0
269,174.0,-1036.0,11.0,-3556.0,-184.0,417.0
270,677.0,-1501.0,453.0,-2715.0,-83.0,394.0
271,459.0,-1014.0,98.0,861.0,275.0,-224.0
272,369.0,-637.0,305.0,1293.0,434.0,-556.0
273,392.0,-821.0,112.0,920.0,383.0,-639.0
274,414.0,-896.0,-108.0,710.0,335.0,-583.0
275,600.0,-1228.0,-511.0,538.0,246.0,-440.0
276,864.0,-1782.0,-1151.0,668.0,345.0,-235.0
277,724.0,-1959.0,-1479.0,1387.0,763.0,58.0
278,194.0,-1588.0,-878.0,2645.0,1258.0,321.0
279,24.0,-1156.0,109.0,3213.0,1084.0,274.0
280,-58.0,-666.0,590.0,2879.0,671.0,188.0
281,-32.0,-649.0,446.0,1998.0,319.0,175.0
282,9.0,-916.0,-9.0,1455.0,107.0,120.0
283,132.0,-968.0,216.0,126.0,68.0,48.0
284,143.0,-975.0,212.0,110.0,66.0,11.0
285,173.0,-965.0,206.0,105.0,59.0,-10.0
286,159.0,-955.0,219.0,104.0,69.0,-11.0
287,134.0,-952.0,226.0,94.0,77.0,-20.0
288,151.0,-972.0,202.0,71.0,71.0,-44.0
289,172.0,-953.0,220.0,86.0,66.0,-53.0
290,192.0,-942.0,223.0,80.0,66.0,-41.0
291,186.0,-954.0,213.0,58.0,76.0,-19.0
292,187.0,-941.0,227.0,58.0,80.0,-1.0
293,152.0,-934.0,230.0,40.0,92.0,10.0
294,138.0,-953.0,238.0,6.0,103.0,12.0
295,218.0,-1062.0,228.0,248.0,226.0,-30.0
296,222.0,-1104.0,227.0,272.0,298.0,-36.0
297,204.0,-1094.0,241.0,336.0,372.0,-42.0
298,153.0,-1105.0,229.0,357.0,438.0,-52.0
299,130.0,-1068.0,239.0,417.0,443.0,-59.0
300,96.0,-1085.0,244.0,459.0,405.0,-59.0
301,102.0,-1091.0,252.0,512.0,331.0,-74.0
302,92.0,-1074.0,310.0,590.0,255.0,-76.0
303,91.0,-1096.0,296.0,619.0,210.0,-82.0
304,82.0,-1129.0,289.0,669.0,158.0,-95.0
305,106.0,-1194.0,304.0,742.0,50.0,-89.0
306,103.0,-1204.0,308.0,900.0,51.0,-90.0
307,120.0,-1231.0,307.0,1021.0,41.0,-87.0
308,134.0,-1250.0,329.0,1125.0,24.0,-94.0
309,146.0,-1319.0,321.0,1188.0,24.0,-119.0
310,250.0,-1362.0,327.0,1341.0,29.0,-193.0
311,295.0,-1122.0,584.0,2689.0,940.0,-560.0
312,269.0,-1045.0,585.0,2731.0,928.0,-470.0
313,294.0,-982.0,500.0,2725.0,907.0,-406.0
314,200.0,-710.0,389.0,2770.0,912.0,-317.0
315,87.0,-466.0,294.0,2627.0,830.0,-188.0
316,118.0,-233.0,164.0,2299.0,559.0,-53.0
317,284.0,-23.0,-29.0,1825.0,254.0,49.0
318,382.0,100.0,-364.0,1187.0,215.0,73.0
319,123.0,340.0,-794.0,457.0,581.0,120.0
320,-499.0,421.0,-382.0,-585.0,819.0,406.0
321,222.0,-507.0,-545.0,-2108.0,-289.0,727.0
322,-55.0,-431.0,-493.0,-1671.0,245.0,459.0
323,206.0,-1346.0,806.0,-1762.0,-501.0,148.0
324,252.0,-717.0,922.0,1816.0,21.0,-510.0
325,189.0,-470.0,726.0,1422.0,-244.0,-399.0
326,193.0,-941.0,170.0,430.0,-561.0,-204.0
327,372.0,-1562.0,-671.0,-82.0,-795.0,-107.0
328,574.0,-1959.0,-1479.0,232.0,-688.0,-94.0
329,247.0,-1919.0,-1428.0,1618.0,-221.0,-12.0
330,-124.0,-1286.0,-572.0,3117.0,-27.0,-11.0
331,175.0,-762.0,389.0,3387.0,-487.0,-113.0
332,318.0,-484.0,681.0,2442.0,-526.0,-193.0
333,98.0,-706.0,454.0,1448.0,-223.0,-141.0
334,164.0,-925.0,183.0,996.0,-130.0,-204.0
335,172.0,-980.0,133.0,651.0,165.0,-228.0
336,189.0,-955.0,181.0,651.0,171.0,-237.0
337,190.0,-940.0,201.0,628.0,157.0,-212.0
338,188.0,-928.0,216.0,594.0,130.0,-179.0
339,209.0,-944.0,193.0,544.0,118.0,-156.0
340,186.0,-928.0,226.0,520.0,132.0,-135.0
341,200.0,-908.0,247.0,483.0,113.0,-111.0
342,204.0,-923.0,233.0,414.0,115.0,-83.0
343,150.0,-954.0,255.0,251.0,119.0,8.0
344,166.0,-967.0,242.0,225.0,102.0,-10.0
345,199.0,-961.0,233.0,213.0,92.0,-17.0
346,198.0,-958.0,234.0,208.0,98.0,-1.0
347,170.0,-950.0,249.0,206.0,108.0,19.0
348,177.0,-945.0,245.0,189.0,101.0,19.0
349,169.0,-937.0,249.0,177.0,103.0,24.0
350,163.0,-930.0,253.0,163.0,104.0,28.0
351,163.0,-951.0,253.0,43.0,136.0,28.0
352,102.0,-1042.0,266.0,87.0,269.0,-15.0
353,212.0,-1004.0,291.0,637.0,164.0,-256.0
354,118.0,-1019.0,321.0,665.0,196.0,-273.0
355,94.0,-1004.0,344.0,698.0,158.0,-293.0
356,114.0,-993.0,341.0,719.0,110.0,-290.0
357,130.0,-992.0,342.0,736.0,86.0,-269.0
358,141.0,-986.0,357.0,764.0,68.0,-253.0
359,150.0,-996.0,363.0,779.0,51.0,-231.0
360,190.0,-991.0,358.0,801.0,40.0,-207.0
361,204.0,-982.0,367.0,816.0,57.0,-183.0
362,451.0,-1506.0,327.0,1925.0,534.0,-630.0
363,484.0,-1521.0,300.0,2242.0,766.0,-726.0
364,449.0,-1539.0,330.0,2376.0,876.0,-739.0
365,441.0,-1533.0,370.0,2549.0,930.0,-699.0
366,345.0,-1428.0,329.0,2749.0,1029.0,-630.0
367,223.0,-1239.0,197.0,2888.0,1096.0,-569.0
368,201.0,-1164.0,397.0,2866.0,964.0,-560.0
369,217.0,-1171.0,682.0,2812.0,733.0,-562.0
370,307.0,-1086.0,754.0,2845.0,539.0,-539.0
371,243.0,-306.0,114.0,2244.0,695.0,-728.0
372,108.0,-179.0,19.0,1825.0,748.0,-741.0
373,-89.0,-40.0,-95.0,1285.0,772.0,-694.0
374,-341.0,-44.0,-79.0,582.0,710.0,-450.0
375,-49.0,-402.0,-185.0,-113.0,190.0,-96.0
376,142.0,-526.0,-284.0,-302.0,78.0,60.0
377,55.0,-253.0,-244.0,-191.0,231.0,64.0
378,-82.0,-63.0,-216.0,-405.0,306.0,54.0
379,-77.0,-104.0,-247.0,-878.0,239.0,98.0
380,376.0,-1148.0,200.0,-3515.0,-1042.0,673.0
381,350.0,-1344.0,396.0,-2465.0,-351.0,57.0
382,396.0,-1367.0,408.0,-2411.0,-316.0,2.0
383,422.0,-1385.0,450.0,-2312.0,-248.0,-55.0
384,442.0,-1376.0,487.0,-2163.0,-159.0,-109.0
385,453.0,-1356.0,511.0,-1990.0,-49.0,-174.0
386,393.0,-1343.0,522.0,-1820.0,88.0,-258.0
387,397.0,-1257.0,526.0,-1624.0,151.0,-304.0
388,368.0,-1142.0,504.0,-1479.0,208.0,-310.0
389,189.0,-996.0,514.0,-1414.0,286.0,-327.0
390,134.0,-1069.0,484.0,-1511.0,204.0,-325.0
391,137.0,-1019.0,127.0,415.0,-608.0,-332.0
392,168.0,-980.0,140.0,566.0,-630.0,-347.0
393,155.0,-985.0,179.0,680.0,-607.0,-376.0
394,-67.0,-1343.0,203.0,796.0,-573.0,-260.0
395,-138.0,-1132.0,281.0,1441.0,-637.0,261.0
396,-176.0,-886.0,254.0,1771.0,-606.0,827.0
397,-291.0,-895.0,157.0,1540.0,-518.0,902.0
398,-163.0,-1257.0,-231.0,1182.0,-497.0,732.0
399,0.0,-1744.0,-784.0,1156.0,-349.0,462.0
400,303.0,-1959.0,-1538.0,1333.0,-226.0,62.0
401,419.0,-1924.0,-1546.0,2397.0,-98.0,-197.0
402,226.0,-970.0,64.0,1026.0,177.0,157.0
403,162.0,-950.0,107.0,1011.0,185.0,175.0
404,167.0,-932.0,147.0,961.0,167.0,144.0
405,143.0,-964.0,135.0,858.0,175.0,110.0
406,132.0,-980.0,132.0,781.0,190.0,50.0
407,155.0,-962.0,165.0,743.0,166.0,-5.0
408,201.0,-961.0,151.0,681.0,136.0,-25.0
409,229.0,-939.0,185.0,650.0,111.0,-2.0
410,209.0,-954.0,181.0,594.0,106.0,47.0
411,204.0,-956.0,171.0,554.0,91.0,77.0
412,173.0,-936.0,205.0,543.0,79.0,100.0
413,191.0,-966.0,200.0,95.0,135.0,-23.0
414,194.0,-956.0,218.0,110.0,139.0,-9.0
415,182.0,-957.0,221.0,108.0,142.0,9.0
416,182.0,-954.0,219.0,111.0,142.0,22.0
417,158.0,-947.0,223.0,113.0,149.0,29.0
418,150.0,-944.0,233.0,114.0,143.0,25.0
419,167.0,-946.0,231.0,104.0,129.0,21.0
420,161.0,-975.0,236.0,92.0,133.0,23.0
421,196.0,-979.0,218.0,94.0,124.0,22.0
422,163.0,-969.0,231.0,112.0,148.0,31.0
423,157.0,-974.0,230.0,115.0,152.0,26.0
424,166.0,-978.0,268.0,183.0,280.0,-59.0
425,151.0,-968.0,270.0,191.0,292.0,-83.0
426,131.0,-1011.0,261.0,180.0,295.0,-103.0
427,145.0,-1008.0,263.0,215.0,286.0,-128.0
428,147.0,-1018.0,268.0,242.0,279.0,-143.0
429,160.0,-1032.0,272.0,259.0,266.0,-173.0
430,148.0,-1028.0,277.0,295.0,260.0,-190.0
431,167.0,-1008.0,285.0,322.0,238.0,-203.0
432,178.0,-1090.0,354.0,620.0,376.0,-290.0
433,456.0,-813.0,481.0,1224.0,370.0,-396.0
434,416.0,-839.0,535.0,1183.0,492.0,-430.0
435,434.0,-891.0,564.0,1171.0,516.0,-412.0
436,424.0,-923.0,619.0,1204.0,558.0,-427.0
437,435.0,-957.0,610.0,1231.0,593.0,-503.0
438,398.0,-970.0,624.0,1266.0,669.0,-555.0
439,332.0,-1009.0,636.0,1293.0,717.0,-538.0
440,282.0,-1039.0,631.0,1346.0,714.0,-547.0
441,219.0,-1025.0,642.0,1415.0,688.0,-580.0
442,254.0,-1056.0,629.0,1443.0,595.0,-586.0
443,203.0,-1091.0,621.0,1484.0,607.0,-549.0
444,257.0,-1037.0,590.0,1589.0,527.0,-489.0
445,327.0,-919.0,545.0,1661.0,485.0,-433.0
446,358.0,-804.0,485.0,1661.0,548.0,-397.0
447,268.0,-637.0,481.0,1617.0,652.0,-363.0
448,-56.0,-448.0,-405.0,-3533.0,298.0,311.0
449,170.0,-1529.0,1576.0,-1704.0,-301.0,167.0
450,79.0,-1432.0,1637.0,-1408.0,-325.0,145.0
451,45.0,-1290.0,1622.0,-1107.0,-389.0,135.0
452,-29.0,-1195.0,1639.0,-836.0,-441.0,124.0
453,82.0,-1167.0,1596.0,-588.0,-592.0,104.0
454,141.0,-1189.0,1498.0,-295.0,-628.0,34.0
455,90.0,-1005.0,1393.0,134.0,-628.0,-119.0
456,176.0,-371.0,1197.0,410.0,-686.0,-314.0
457,181.0,-535.0,683.0,-154.0,-684.0,-245.0
458,277.0,-280.0,289.0,-333.0,-714.0,-215.0
459,497.0,-364.0,-212.0,-802.0,-661.0,-194.0
460,285.0,-1120.0,-144.0,945.0,357.0,-312.0
461,31.0,-956.0,203.0,10.0,192.0,-48.0
462,85.0,-998.0,145.0,-51.0,171.0,-139.0
463,81.0,-966.0,171.0,-22.0,152.0,-167.0
464,79.0,-943.0,183.0,-30.0,116.0,-184.0
465,81.0,-941.0,203.0,-53.0,89.0,-219.0
466,132.0,-977.0,149.0,-103.0,69.0,-254.0
467,143.0,-981.0,148.0,-100.0,66.0,-248.0
468,157.0,-977.0,146.0,-86.0,52.0,-215.0
469,158.0,-979.0,144.0,-80.0,60.0,-180.0
470,170.0,-977.0,141.0,-30.0,118.0,-2.0
471,137.0,-972.0,151.0,26.0,74.0,-33.0
472,133.0,-979.0,158.0,24.0,73.0,15.0
473,134.0,-982.0,149.0,19.0,72.0,14.0
474,125.0,-979.0,158.0,25.0,75.0,12.0
475,134.0,-982.0,145.0,21.0,73.0,4.0
476,122.0,-974.0,154.0,31.0,79.0,0.0
477,129.0,-977.0,150.0,31.0,77.0,-8.0
478,134.0,-974.0,154.0,33.0,78.0,-10.0
479,138.0,-967.0,161.0,35.0,81.0,-5.0
480,136.0,-967.0,163.0,26.0,84.0,4.0
481,129.0,-965.0,165.0,18.0,89.0,10.0
482,122.0,-969.0,160.0,6.0,92.0,10.0
483,118.0,-970.0,160.0,-4.0,91.0,-4.0
484,125.0,-973.0,154.0,-14.0,85.0,-16.0
485,125.0,-971.0,157.0,-13.0,86.0,-13.0
486,125.0,-972.0,157.0,-13.0,87.0,-10.0
487,126.0,-975.0,156.0,-14.0,87.0,-7.0
488,125.0,-974.0,157.0,-12.0,89.0,-4.0
489,123.0,-975.0,156.0,-13.0,89.0,-1.0
490,127.0,-978.0,150.0,-15.0,89.0,-1.0
491,123.0,-973.0,154.0,-10.0,93.0,2.0
492,115.0,-972.0,157.0,-9.0,93.0,3.0
493,120.0,-974.0,155.0,-10.0,91.0,-1.0
494,121.0,-974.0,158.0,-9.0,90.0,-3.0
495,120.0,-975.0,159.0,-11.0,89.0,-2.0
496,121.0,-979.0,156.0,-16.0,89.0,-3.0
497,123.0,-980.0,151.0,-19.0,88.0,-5.0
498,118.0,-976.0,156.0,-16.0,90.0,-4.0
499,110.0,-977.0,153.0,-24.0,88.0,-96.0
500,121.0,-978.0,153.0,-25.0,88.0,-111.0
501,122.0,-972.0,157.0,-24.0,90.0,-118.0
502,121.0,-973.0,163.0,-27.0,90.0,-122.0
503,139.0,-980.0,147.0,-40.0,88.0,-129.0
504,126.0,-976.0,147.0,-33.0,93.0,-123.0
505,120.0,-975.0,155.0,-28.0,88.0,-123.0
506,128.0,-983.0,149.0,-35.0,82.0,-132.0
507,140.0,-980.0,145.0,-11.0,88.0,-118.0
508,148.0,-969.0,153.0,-2.0,75.0,-48.0
509,148.0,-958.0,161.0,-4.0,74.0,-40.0
510,151.0,-962.0,160.0,-15.0,70.0,-31.0
511,154.0,-963.0,163.0,-19.0,66.0,-18.0
512,160.0,-985.0,151.0,-28.0,63.0,-5.0
513,154.0,-995.0,138.0,-28.0,66.0,4.0
514,128.0,-988.0,156.0,-11.0,71.0,6.0
515,125.0,-994.0,145.0,-24.0,59.0,-17.0
516,125.0,-1013.0,146.0,-29.0,51.0,-48.0
517,142.0,-1018.0,138.0,-28.0,39.0,-77.0
518,159.0,-1011.0,137.0,-18.0,35.0,-97.0
519,172.0,-1020.0,146.0,-8.0,41.0,-101.0
520,190.0,-1047.0,113.0,-9.0,46.0,-103.0
521,162.0,-1049.0,133.0,26.0,77.0,-98.0
522,160.0,-1037.0,145.0,53.0,76.0,-108.0
523,726.0,-1146.0,87.0,-880.0,653.0,-478.0
524,6.0,-990.0,-332.0,-702.0,4578.0,-353.0
525,16.0,-941.0,-334.0,-649.0,4443.0,-350.0
526,13.0,-889.0,-293.0,-629.0,4330.0,-341.0
527,70.0,-972.0,-298.0,-700.0,4208.0,-338.0
528,0.0,-1028.0,-302.0,-666.0,4158.0,-345.0
529,-38.0,-976.0,-275.0,-549.0,4049.0,-339.0
530,-73.0,-955.0,-278.0,-513.0,3882.0,-313.0
531,-152.0,-945.0,-247.0,-506.0,3703.0,-304.0
532,-193.0,-965.0,-222.0,-521.0,3452.0,-287.0
533,-240.0,-985.0,-171.0,-502.0,3180.0,-227.0
534,-295.0,-1000.0,-112.0,-466.0,2901.0,-166.0
535,436.0,-1058.0,29.0,42.0,-186.0,33.0
536,294.0,-942.0,147.0,-136.0,72.0,-207.0
537,299.0,-952.0,131.0,-143.0,81.0,-192.0
538,308.0,-957.0,123.0,-140.0,83.0,-172.0
539,298.0,-958.0,123.0,-132.0,90.0,-143.0
540,297.0,-961.0,122.0,-127.0,87.0,-120.0
541,296.0,-944.0,129.0,-118.0,87.0,-101.0
542,290.0,-923.0,138.0,-117.0,93.0,-84.0
543,242.0,-928.0,179.0,-133.0,100.0,-80.0
544,262.0,-957.0,138.0,-188.0,80.0,-111.0
545,272.0,-961.0,116.0,-203.0,82.0,-141.0
546,325.0,-915.0,108.0,-273.0,167.0,-298.0
547,359.0,-936.0,64.0,-286.0,188.0,-295.0
548,365.0,-944.0,46.0,-276.0,207.0,-279.0
549,374.0,-929.0,57.0,-252.0,229.0,-261.0
550,361.0,-910.0,86.0,-231.0,246.0,-232.0
551,378.0,-912.0,64.0,-256.0,252.0,-211.0
552,374.0,-893.0,96.0,-247.0,273.0,-185.0
553,366.0,-927.0,58.0,-293.0,298.0,-166.0
554,338.0,-958.0,25.0,-302.0,336.0,-175.0
555,362.0,-949.0,31.0,-262.0,339.0,-195.0
556,358.0,-927.0,55.0,-231.0,335.0,-186.0
557,342.0,-908.0,55.0,4.0,221.0,20.0
558,337.0,-886.0,100.0,-9.0,204.0,12.0
559,356.0,-934.0,24.0,-86.0,175.0,6.0
560,361.0,-932.0,31.0,-62.0,190.0,-4.0
561,363.0,-941.0,27.0,-49.0,200.0,-6.0
562,374.0,-960.0,7.0,-39.0,205.0,-9.0
563,379.0,-959.0,-7.0,0.0,214.0,-3.0
564,370.0,-933.0,12.0,53.0,234.0,7.0
565,338.0,-893.0,91.0,84.0,242.0,17.0
566,332.0,-934.0,54.0,21.0,211.0,15.0
567,343.0,-925.0,54.0,18.0,191.0,-3.0
568,359.0,-882.0,88.0,56.0,193.0,13.0
569,334.0,-877.0,121.0,20.0,178.0,38.0
570,356.0,-935.0,48.0,-57.0,139.0,47.0
571,361.0,-926.0,50.0,-34.0,138.0,56.0
572,361.0,-938.0,38.0,-24.0,135.0,78.0
573,358.0,-936.0,48.0,1.0,135.0,96.0
574,351.0,-948.0,40.0,16.0,131.0,113.0
575,357.0,-952.0,30.0,41.0,123.0,123.0
576,367.0,-933.0,48.0,76.0,125.0,137.0
577,370.0,-996.0,42.0,20.0,234.0,168.0
578,173.0,-764.0,-166.0,116.0,4234.0,-43.0
579,129.0,-847.0,-153.0,-1.0,4071.0,-92.0
580,166.0,-960.0,-139.0,-63.0,3872.0,-124.0
581,203.0,-977.0,-130.0,13.0,3718.0,-155.0
582,206.0,-965.0,-189.0,103.0,3616.0,-220.0
583,234.0,-897.0,-268.0,178.0,3509.0,-267.0
584,265.0,-862.0,-339.0,197.0,3389.0,-287.0
585,291.0,-959.0,-415.0,187.0,3276.0,-344.0
586,301.0,-954.0,-501.0,344.0,3157.0,-459.0
587,284.0,-944.0,-531.0,555.0,3046.0,-613.0
588,288.0,-910.0,-614.0,755.0,2896.0,-785.0
589,44.0,-897.0,329.0,-84.0,-396.0,-154.0
590,95.0,-1079.0,247.0,95.0,40.0,-194.0
591,128.0,-1043.0,240.0,63.0,14.0,-284.0
592,152.0,-988.0,264.0,65.0,-13.0,-329.0
593,181.0,-969.0,264.0,52.0,-39.0,-345.0
594,220.0,-956.0,267.0,42.0,-54.0,-338.0
595,262.0,-960.0,240.0,31.0,-44.0,-313.0
596,253.0,-951.0,243.0,39.0,5.0,-267.0
597,237.0,-916.0,271.0,58.0,36.0,-218.0
598,225.0,-918.0,271.0,46.0,62.0,-177.0
599,205.0,-923.0,264.0,41.0,81.0,-147.0
600,186.0,-918.0,268.0,46.0,86.0,-122.0
601,214.0,-928.0,267.0,-27.0,63.0,-39.0
602,199.0,-952.0,257.0,-88.0,97.0,-72.0
603,206.0,-963.0,255.0,-83.0,90.0,-67.0
604,223.0,-968.0,231.0,-74.0,88.0,-62.0
605,207.0,-949.0,256.0,-45.0,96.0,-39.0
606,217.0,-950.0,248.0,-42.0,90.0,-24.0
607,232.0,-943.0,253.0,-33.0,86.0,-9.0
608,207.0,-948.0,252.0,-29.0,96.0,16.0
609,194.0,-947.0,253.0,-27.0,99.0,21.0
610,201.0,-948.0,245.0,-26.0,103.0,14.0
611,194.0,-937.0,268.0,-20.0,110.0,8.0
612,207.0,-949.0,254.0,-39.0,114.0,-1.0
613,237.0,-1038.0,222.0,-97.0,109.0,52.0
614,587.0,-863.0,231.0,122.0,653.0,-87.0
615,677.0,-788.0,179.0,122.0,738.0,-94.0
616,816.0,-635.0,69.0,80.0,907.0,-126.0
617,785.0,-598.0,-30.0,-140.0,1287.0,-200.0
618,648.0,-612.0,-63.0,-362.0,1663.0,-273.0
619,540.0,-618.0,-68.0,-555.0,1890.0,-313.0
620,305.0,-669.0,-17.0,-754.0,2022.0,-273.0
621,166.0,-723.0,33.0,-920.0,1899.0,-205.0
622,-9.0,-867.0,99.0,-1037.0,1618.0,-185.0
623,-277.0,-864.0,268.0,53.0,391.0,70.0
624,-356.0,-1076.0,-118.0,-149.0,287.0,-247.0
625,62.0,-1469.0,-354.0,79.0,-78.0,-679.0
626,680.0,-1310.0,-47.0,927.0,-297.0,-808.0
627,649.0,-1032.0,275.0,1147.0,-102.0,-531.0
628,486.0,-957.0,306.0,701.0,51.0,-246.0
629,327.0,-976.0,215.0,362.0,148.0,-103.0
630,273.0,-948.0,204.0,257.0,213.0,-42.0
631,270.0,-905.0,240.0,257.0,184.0,18.0
632,279.0,-882.0,256.0,235.0,167.0,100.0
633,222.0,-962.0,207.0,15.0,37.0,-71.0
634,222.0,-947.0,227.0,30.0,54.0,-44.0
635,210.0,-943.0,234.0,29.0,69.0,-18.0
636,192.0,-941.0,242.0,19.0,78.0,-2.0
637,176.0,-945.0,241.0,4.0,81.0,4.0
638,179.0,-947.0,240.0,-8.0,75.0,-1.0
639,183.0,-957.0,229.0,-19.0,73.0,-7.0
640,181.0,-965.0,218.0,-22.0,78.0,-13.0
641,177.0,-955.0,231.0,-10.0,79.0,-16.0
642,183.0,-964.0,229.0,-13.0,75.0,-22.0
643,191.0,-971.0,214.0,-13.0,77.0,-27.0
644,199.0,-976.0,211.0,36.0,73.0,1.0
645,194.0,-959.0,222.0,57.0,79.0,12.0
646,189.0,-950.0,230.0,64.0,83.0,25.0
647,187.0,-946.0,236.0,62.0,88.0,35.0
648,181.0,-941.0,242.0,56.0,96.0,43.0
649,178.0,-944.0,242.0,45.0,103.0,46.0
650,170.0,-942.0,242.0,35.0,112.0,44.0
651,160.0,-940.0,244.0,26.0,117.0,37.0
652,151.0,-941.0,246.0,17.0,117.0,30.0
653,142.0,-948.0,242.0,8.0,114.0,18.0
654,149.0,-955.0,239.0,2.0,103.0,0.0
655,157.0,-951.0,242.0,11.0,77.0,-34.0
656,171.0,-952.0,243.0,7.0,73.0,-41.0
657,177.0,-956.0,238.0,2.0,73.0,-39.0
658,174.0,-955.0,238.0,1.0,75.0,-32.0
659,169.0,-955.0,240.0,0.0,76.0,-27.0
660,170.0,-952.0,239.0,-1.0,73.0,-28.0
661,176.0,-951.0,239.0,0.0,71.0,-24.0
662,173.0,-954.0,239.0,0.0,73.0,-18.0
663,171.0,-955.0,241.0,-18.0,78.0,-31.0
664,178.0,-971.0,234.0,-64.0,76.0,-92.0
665,175.0,-988.0,203.0,-46.0,74.0,-89.0
666,177.0,-963.0,217.0,4.0,64.0,-87.0
667,174.0,-960.0,231.0,22.0,57.0,-82.0
668,199.0,-966.0,222.0,25.0,44.0,-83.0
669,208.0,-965.0,224.0,38.0,44.0,-72.0
670,200.0,-955.0,223.0,48.0,45.0,-53.0
671,168.0,-937.0,241.0,58.0,50.0,-39.0
672,157.0,-941.0,241.0,53.0,50.0,-43.0
673,176.0,-941.0,236.0,54.0,39.0,-60.0
674,178.0,-940.0,236.0,55.0,33.0,-63.0
675,207.0,-958.0,232.0,21.0,47.0,-143.0
676,230.0,-917.0,254.0,75.0,80.0,-87.0
677,230.0,-945.0,241.0,48.0,79.0,-71.0
678,243.0,-948.0,223.0,50.0,82.0,-61.0
679,237.0,-914.0,256.0,88.0,87.0,-39.0
680,203.0,-930.0,257.0,72.0,96.0,-24.0
681,205.0,-952.0,244.0,48.0,88.0,-38.0
682,220.0,-961.0,231.0,47.0,80.0,-50.0
683,206.0,-975.0,238.0,53.0,88.0,-59.0
684,208.0,-977.0,240.0,65.0,87.0,-75.0
685,230.0,-969.0,241.0,81.0,78.0,-88.0
686,237.0,-973.0,232.0,94.0,79.0,-84.0
687,215.0,-896.0,289.0,198.0,53.0,0.0
688,227.0,-946.0,280.0,62.0,85.0,89.0
689,220.0,-950.0,281.0,64.0,91.0,91.0
690,206.0,-951.0,275.0,61.0,102.0,86.0
691,187.0,-935.0,286.0,64.0,111.0,73.0
692,203.0,-907.0,296.0,60.0,102.0,60.0
693,204.0,-893.0,297.0,35.0,107.0,58.0
694,197.0,-895.0,300.0,10.0,113.0,62.0
695,203.0,-946.0,298.0,-13.0,111.0,62.0
696,220.0,-984.0,267.0,-11.0,109.0,61.0
697,222.0,-949.0,283.0,33.0,110.0,73.0
698,217.0,-937.0,290.0,38.0,109.0,96.0
699,165.0,-920.0,302.0,-79.0,94.0,139.0
700,189.0,-932.0,285.0,-2.0,90.0,50.0
701,178.0,-937.0,278.0,-8.0,101.0,73.0
702,177.0,-927.0,296.0,1.0,98.0,88.0
703,161.0,-926.0,294.0,-15.0,104.0,105.0
704,142.0,-926.0,298.0,-26.0,106.0,108.0
705,137.0,-928.0,292.0,-37.0,103.0,98.0
706,130.0,-926.0,290.0,-42.0,100.0,88.0
707,137.0,-912.0,306.0,-42.0,90.0,77.0
708,150.0,-957.0,305.0,-64.0,85.0,71.0
709,164.0,-1003.0,243.0,-70.0,87.0,65.0
710,144.0,-976.0,286.0,-12.0,89.0,65.0
711,129.0,-985.0,289.0,23.0,155.0,65.0
712,84.0,-970.0,322.0,706.0,62.0,-158.0
713,99.0,-952.0,347.0,700.0,47.0,-183.0
714,101.0,-961.0,340.0,682.0,38.0,-197.0
715,145.0,-943.0,347.0,684.0,26.0,-197.0
716,168.0,-929.0,359.0,679.0,36.0,-188.0
717,166.0,-921.0,356.0,658.0,64.0,-173.0
718,130.0,-898.0,379.0,654.0,92.0,-164.0
719,135.0,-917.0,384.0,622.0,85.0,-147.0
720,152.0,-928.0,389.0,608.0,77.0,-137.0
721,168.0,-948.0,387.0,599.0,75.0,-140.0
722,155.0,-978.0,385.0,597.0,89.0,-143.0
723,366.0,-1192.0,448.0,1046.0,291.0,-364.0
724,386.0,-1620.0,247.0,2890.0,1236.0,-366.0
725,362.0,-1425.0,346.0,3130.0,1189.0,-209.0
726,301.0,-1023.0,358.0,3337.0,1155.0,16.0
727,260.0,-611.0,217.0,3312.0,1110.0,230.0
728,268.0,-227.0,74.0,3038.0,923.0,404.0
729,417.0,170.0,-158.0,2562.0,556.0,444.0
730,439.0,648.0,-385.0,1830.0,363.0,221.0
731,261.0,976.0,-1187.0,673.0,613.0,-10.0
732,-1016.0,684.0,-775.0,-1248.0,1475.0,74.0
733,-16.0,-879.0,-891.0,-3480.0,-683.0,757.0
734,860.0,-1401.0,-1300.0,-3313.0,-1316.0,691.0
735,404.0,-1839.0,799.0,-3572.0,-994.0,-224.0
736,-59.0,-1329.0,1187.0,-1039.0,-94.0,-226.0
737,86.0,-1321.0,1084.0,-753.0,-120.0,-104.0
738,94.0,-1121.0,1004.0,-372.0,-40.0,-6.0
739,132.0,-1038.0,852.0,-207.0,-32.0,19.0
740,152.0,-1146.0,647.0,-140.0,-53.0,38.0
741,-9.0,-1138.0,549.0,131.0,-52.0,44.0
742,-34.0,-1061.0,446.0,385.0,-235.0,20.0
743,6.0,-1080.0,363.0,530.0,-476.0,-1.0
744,105.0,-1321.0,313.0,687.0,-690.0,-50.0
745,177.0,-1638.0,157.0,1232.0,-837.0,-121.0
746,229.0,-917.0,-48.0,1579.0,-705.0,94.0
747,117.0,-894.0,229.0,1086.0,-9.0,507.0
748,125.0,-864.0,291.0,957.0,-30.0,453.0
749,42.0,-907.0,284.0,785.0,21.0,391.0
750,8.0,-979.0,231.0,653.0,22.0,284.0
751,6.0,-995.0,204.0,594.0,10.0,155.0
752,27.0,-1005.0,208.0,557.0,0.0,36.0
753,127.0,-1020.0,156.0,522.0,-29.0,-61.0
754,89.0,-922.0,233.0,570.0,-2.0,-94.0
755,117.0,-839.0,273.0,538.0,-1.0,-144.0
756,78.0,-824.0,284.0,456.0,53.0,-187.0
757,57.0,-827.0,310.0,385.0,88.0,-242.0
758,117.0,-885.0,295.0,293.0,76.0,-307.0
759,151.0,-935.0,256.0,222.0,85.0,-338.0
760,154.0,-957.0,237.0,186.0,110.0,-343.0
761,197.0,-952.0,226.0,162.0,112.0,-336.0
762,220.0,-915.0,222.0,108.0,125.0,-272.0
763,106.0,-1005.0,245.0,86.0,397.0,-223.0
764,199.0,-992.0,233.0,92.0,344.0,-261.0
765,193.0,-978.0,246.0,108.0,337.0,-243.0
766,119.0,-988.0,248.0,97.0,347.0,-226.0
767,118.0,-987.0,248.0,108.0,291.0,-242.0
768,188.0,-993.0,242.0,116.0,211.0,-255.0
769,224.0,-994.0,225.0,128.0,187.0,-244.0
770,228.0,-973.0,250.0,159.0,181.0,-222.0
771,190.0,-990.0,257.0,169.0,190.0,-212.0
772,173.0,-1001.0,258.0,189.0,173.0,-215.0
773,188.0,-1011.0,240.0,223.0,147.0,-232.0
774,225.0,-976.0,258.0,267.0,112.0,-243.0
775,197.0,-948.0,271.0,300.0,125.0,-229.0
776,221.0,-940.0,274.0,305.0,122.0,-228.0
777,222.0,-925.0,278.0,320.0,139.0,-227.0
778,203.0,-983.0,325.0,368.0,140.0,-89.0
779,360.0,-1063.0,427.0,759.0,76.0,-51.0
780,408.0,-1148.0,429.0,794.0,102.0,-55.0
781,449.0,-1215.0,441.0,853.0,153.0,-81.0
782,490.0,-1239.0,412.0,922.0,227.0,-139.0
783,471.0,-1223.0,417.0,1004.0,337.0,-228.0
784,453.0,-1244.0,412.0,1056.0,441.0,-338.0
785,410.0,-1419.0,405.0,1101.0,550.0,-450.0
786,310.0,-1447.0,384.0,1290.0,649.0,-555.0
787,385.0,-1367.0,373.0,1528.0,622.0,-620.0
788,413.0,-1389.0,382.0,1625.0,677.0,-681.0
789,418.0,-1401.0,360.0,1740.0,769.0,-753.0
790,318.0,-497.0,289.0,2525.0,687.0,-473.0
791,238.0,-281.0,259.0,2391.0,687.0,-550.0
792,149.0,-46.0,208.0,2111.0,693.0,-598.0
793,175.0,173.0,71.0,1620.0,601.0,-568.0
794,-453.0,-54.0,-197.0,-1225.0,1041.0,-231.0
795,-298.0,-603.0,-218.0,-1780.0,417.0,28.0
796,-73.0,-619.0,-243.0,-1555.0,70.0,201.0
797,-123.0,-352.0,-152.0,-1244.0,105.0,363.0
798,-233.0,-136.0,-89.0,-1301.0,80.0,441.0
799,-198.0,-138.0,-87.0,-1684.0,-134.0,473.0
800,-123.0,-274.0,-140.0,-2106.0,-328.0,525.0
801,-90.0,-309.0,-143.0,-2327.0,-448.0,612.0
802,-30.0,-274.0,-113.0,-2512.0,-587.0,699.0
803,235.0,-1371.0,375.0,-2960.0,-942.0,524.0
804,216.0,-1283.0,391.0,-2235.0,-506.0,172.0
805,266.0,-1327.0,376.0,-2214.0,-483.0,207.0
806,378.0,-1307.0,355.0,-2136.0,-428.0,224.0
807,437.0,-1250.0,361.0,-2064.0,-302.0,212.0
808,486.0,-1255.0,356.0,-2063.0,-154.0,175.0
809,507.0,-1283.0,366.0,-2033.0,9.0,125.0
810,472.0,-1264.0,395.0,-1941.0,191.0,52.0
811,376.0,-1196.0,439.0,-1836.0,358.0,-42.0
812,280.0,-1181.0,451.0,-1798.0,467.0,-151.0
813,124.0,-1178.0,451.0,-1763.0,546.0,-230.0
814,-23.0,-1181.0,451.0,-1717.0,562.0,-235.0
815,103.0,-988.0,305.0,91.0,38.0,-51.0
816,-19.0,-1439.0,-998.0,3392.0,1592.0,-302.0
817,-27.0,-704.0,462.0,4412.0,877.0,-82.0
818,84.0,-444.0,718.0,3264.0,525.0,-254.0
819,-62.0,-562.0,602.0,2247.0,362.0,-223.0
820,116.0,-870.0,203.0,1568.0,179.0,-359.0
821,184.0,-977.0,44.0,1380.0,99.0,-358.0
822,106.0,-999.0,-45.0,1324.0,52.0,-264.0
823,122.0,-1024.0,-115.0,1263.0,-51.0,-275.0
824,175.0,-984.0,-77.0,1298.0,-89.0,-281.0
825,352.0,-883.0,9.0,1345.0,-192.0,-193.0
826,334.0,-856.0,129.0,1282.0,-131.0,-13.0
827,163.0,-939.0,195.0,282.0,166.0,-134.0
828,167.0,-942.0,190.0,225.0,162.0,-144.0
829,176.0,-928.0,198.0,191.0,151.0,-142.0
830,179.0,-915.0,214.0,161.0,137.0,-127.0
831,199.0,-930.0,189.0,100.0,122.0,-100.0
832,186.0,-950.0,180.0,69.0,118.0,-62.0
833,189.0,-951.0,185.0,63.0,99.0,-22.0
834,173.0,-975.0,176.0,35.0,83.0,9.0
835,180.0,-985.0,165.0,19.0,67.0,18.0
836,205.0,-991.0,146.0,11.0,60.0,28.0
837,182.0,-962.0,188.0,53.0,58.0,56.0
838,172.0,-966.0,179.0,124.0,61.0,15.0
839,171.0,-977.0,178.0,45.0,71.0,-1.0
840,167.0,-942.0,207.0,68.0,96.0,9.0
841,169.0,-956.0,192.0,42.0,95.0,19.0
842,190.0,-992.0,167.0,33.0,91.0,29.0
843,181.0,-972.0,193.0,78.0,95.0,53.0
844,159.0,-969.0,195.0,82.0,100.0,70.0
845,169.0,-994.0,164.0,65.0,102.0,64.0
846,155.0,-943.0,220.0,118.0,111.0,62.0
847,150.0,-927.0,228.0,101.0,116.0,56.0
848,143.0,-951.0,213.0,58.0,124.0,40.0
849,137.0,-939.0,228.0,67.0,130.0,21.0
850,133.0,-954.0,215.0,35.0,136.0,-3.0
851,160.0,-975.0,223.0,188.0,235.0,6.0
852,153.0,-979.0,223.0,194.0,234.0,17.0
853,166.0,-995.0,215.0,196.0,235.0,23.0
854,177.0,-1000.0,221.0,216.0,239.0,35.0
855,182.0,-1016.0,226.0,227.0,248.0,52.0
856,177.0,-1038.0,233.0,240.0,262.0,66.0
857,174.0,-1062.0,236.0,265.0,280.0,70.0
858,186.0,-1109.0,228.0,292.0,288.0,69.0
859,194.0,-1244.0,325.0,1710.0,123.0,-437.0
860,277.0,-1279.0,313.0,1775.0,135.0,-513.0
861,319.0,-1272.0,256.0,1862.0,205.0,-575.0
862,335.0,-1225.0,296.0,1979.0,304.0,-591.0
863,448.0,-1227.0,284.0,2029.0,342.0,-617.0
864,546.0,-1209.0,260.0,2090.0,454.0,-690.0
865,522.0,-1248.0,289.0,2125.0,678.0,-689.0
866,587.0,-1251.0,260.0,2227.0,767.0,-619.0
867,541.0,-1241.0,365.0,2347.0,938.0,-646.0
868,506.0,-1246.0,379.0,2415.0,1046.0,-678.0
869,493.0,-1212.0,356.0,2509.0,1107.0,-674.0
870,242.0,-480.0,-309.0,-3075.0,-1077.0,486.0
871,27.0,-1362.0,304.0,-3306.0,-771.0,172.0
872,136.0,-1376.0,337.0,-3190.0,-959.0,131.0
873,231.0,-1386.0,363.0,-3113.0,-1079.0,85.0
874,317.0,-1426.0,377.0,-3065.0,-1153.0,69.0
875,380.0,-1483.0,382.0,-3004.0,-1181.0,71.0
876,416.0,-1552.0,409.0,-2758.0,-1135.0,40.0
877,421.0,-1525.0,422.0,-2599.0,-1086.0,11.0
878,400.0,-1469.0,438.0,-2462.0,-1017.0,-25.0
879,394.0,-1455.0,445.0,-2390.0,-961.0,-53.0
880,343.0,-1486.0,452.0,-2339.0,-876.0,-76.0
881,353.0,-1423.0,472.0,-2220.0,-798.0,-72.0
882,325.0,-1341.0,479.0,-2165.0,-678.0,-41.0
883,340.0,-1309.0,456.0,-2201.0,-569.0,-16.0
884,405.0,-1351.0,418.0,-2259.0,-455.0,7.0
885,501.0,-1358.0,428.0,-2130.0,-133.0,12.0
886,67.0,-479.0,770.0,1478.0,8.0,-68.0
887,208.0,-706.0,292.0,439.0,-249.0,-67.0
888,278.0,-1188.0,-339.0,-200.0,-344.0,-59.0
889,643.0,-1902.0,-1489.0,-224.0,-380.0,-81.0
890,543.0,-1821.0,-1613.0,1267.0,-296.0,141.0
891,-92.0,-1332.0,-636.0,3017.0,438.0,-160.0
892,230.0,-593.0,635.0,3758.0,-59.0,-233.0
893,147.0,-569.0,625.0,2372.0,-19.0,-303.0
894,295.0,-814.0,175.0,1514.0,-42.0,-338.0
895,202.0,-784.0,65.0,1436.0,82.0,-287.0
896,270.0,-961.0,-49.0,1158.0,66.0,-263.0
897,298.0,-1045.0,-83.0,1075.0,91.0,-190.0
898,212.0,-875.0,91.0,1226.0,193.0,-117.0
899,244.0,-916.0,16.0,1001.0,151.0,-98.0
900,113.0,-967.0,209.0,520.0,55.0,88.0
901,141.0,-947.0,206.0,126.0,109.0,-160.0
902,146.0,-964.0,194.0,94.0,108.0,-165.0
903,141.0,-965.0,191.0,88.0,113.0,-170.0
904,141.0,-966.0,202.0,82.0,109.0,-173.0
905,157.0,-976.0,199.0,66.0,96.0,-171.0
906,179.0,-977.0,194.0,56.0,84.0,-159.0
907,169.0,-975.0,196.0,56.0,85.0,-135.0
908,170.0,-971.0,200.0,52.0,80.0,-121.0
909,186.0,-973.0,205.0,48.0,77.0,-114.0
910,175.0,-976.0,202.0,44.0,88.0,-106.0
911,162.0,-976.0,212.0,49.0,100.0,-107.0
912,221.0,-900.0,219.0,61.0,75.0,8.0
913,167.0,-976.0,222.0,20.0,112.0,13.0
914,156.0,-1019.0,235.0,295.0,120.0,-49.0
915,184.0,-1023.0,244.0,349.0,97.0,-66.0
916,208.0,-996.0,254.0,404.0,92.0,-75.0
917,177.0,-992.0,248.0,425.0,109.0,-82.0
918,175.0,-989.0,254.0,441.0,114.0,-101.0
919,188.0,-987.0,265.0,469.0,110.0,-109.0
920,178.0,-942.0,280.0,491.0,105.0,-109.0
921,167.0,-983.0,275.0,451.0,95.0,-115.0
922,138.0,-979.0,277.0,475.0,110.0,-128.0
923,137.0,-1000.0,268.0,490.0,107.0,-137.0
924,179.0,-985.0,285.0,523.0,84.0,-136.0
925,359.0,-1131.0,357.0,933.0,68.0,-55.0
926,-19.0,-397.0,389.0,2076.0,604.0,-162.0
927,-72.0,-247.0,301.0,1919.0,437.0,15.0
928,-111.0,282.0,233.0,1847.0,281.0,211.0
929,66.0,741.0,52.0,1304.0,-2.0,375.0
930,252.0,814.0,-206.0,11.0,-143.0,420.0
931,12.0,476.0,-238.0,-1486.0,125.0,374.0
932,-224.0,-311.0,-185.0,-2704.0,154.0,362.0
933,-63.0,-802.0,-227.0,-2850.0,-224.0,458.0
934,126.0,-626.0,-249.0,-2223.0,-362.0,559.0
935,-169.0,-435.0,-121.0,-2731.0,-255.0,547.0
936,130.0,-1303.0,217.0,-3309.0,-594.0,569.0
937,146.0,-1330.0,237.0,-3240.0,-750.0,531.0
938,201.0,-1361.0,258.0,-3209.0,-918.0,493.0
939,269.0,-1438.0,273.0,-3200.0,-1051.0,453.0
940,380.0,-1503.0,285.0,-3146.0,-1152.0,412.0
941,483.0,-1530.0,307.0,-3047.0,-1178.0,379.0
942,567.0,-1541.0,316.0,-2949.0,-1131.0,344.0
943,635.0,-1565.0,327.0,-2864.0,-1012.0,306.0
944,697.0,-1563.0,341.0,-2760.0,-844.0,272.0
945,666.0,-1525.0,375.0,-2658.0,-601.0,218.0
946,619.0,-1432.0,389.0,-2590.0,-355.0,165.0
947,-110.0,-1201.0,466.0,-1274.0,54.0,-215.0
948,4.0,-994.0,305.0,-265.0,-22.0,-95.0
949,194.0,-911.0,34.0,404.0,180.0,-138.0
950,169.0,-905.0,30.0,434.0,182.0,-155.0
951,167.0,-906.0,40.0,455.0,160.0,-166.0
952,158.0,-937.0,82.0,475.0,141.0,-165.0
953,123.0,-1011.0,159.0,517.0,120.0,-160.0
954,-54.0,-968.0,172.0,648.0,51.0,-45.0
955,8.0,-515.0,265.0,751.0,-205.0,194.0
956,43.0,-730.0,15.0,93.0,-384.0,390.0
957,27.0,-1009.0,-325.0,-324.0,-363.0,397.0
958,117.0,-1455.0,-873.0,-454.0,-298.0,218.0
959,228.0,-1959.0,-1774.0,258.0,-383.0,183.0
960,243.0,-828.0,227.0,1042.0,142.0,32.0
961,57.0,-925.0,216.0,319.0,68.0,113.0
962,66.0,-962.0,192.0,245.0,86.0,7.0
963,112.0,-963.0,185.0,216.0,78.0,-85.0
964,111.0,-939.0,208.0,211.0,76.0,-124.0
965,127.0,-933.0,204.0,157.0,63.0,-149.0
966,139.0,-958.0,178.0,89.0,63.0,-168.0
967,144.0,-953.0,182.0,84.0,65.0,-179.0
968,182.0,-957.0,165.0,70.0,60.0,-182.0
969,213.0,-964.0,154.0,76.0,60.0,-153.0
970,180.0,-941.0,176.0,121.0,75.0,-98.0
971,138.0,-931.0,201.0,125.0,83.0,-68.0
972,146.0,-948.0,197.0,83.0,75.0,-74.0
973,166.0,-963.0,184.0,55.0,70.0,-79.0
974,166.0,-965.0,178.0,46.0,76.0,-70.0
975,169.0,-956.0,182.0,-26.0,73.0,-69.0
976,178.0,-967.0,176.0,-29.0,77.0,-68.0
977,189.0,-976.0,166.0,-27.0,77.0,-58.0
978,187.0,-970.0,165.0,-10.0,82.0,-39.0
979,170.0,-963.0,171.0,5.0,88.0,-23.0
980,159.0,-961.0,184.0,6.0,77.0,-25.0
981,183.0,-993.0,162.0,-10.0,73.0,-27.0
982,193.0,-991.0,166.0,15.0,71.0,-13.0
983,174.0,-983.0,171.0,27.0,75.0,8.0
984,165.0,-961.0,180.0,38.0,77.0,11.0
985,162.0,-950.0,188.0,37.0,78.0,8.0
986,159.0,-948.0,186.0,30.0,78.0,3.0
987,146.0,-945.0,195.0,29.0,83.0,-4.0
988,155.0,-964.0,175.0,10.0,81.0,-20.0
989,163.0,-966.0,196.0,-1.0,146.0,-40.0
990,157.0,-965.0,203.0,-9.0,154.0,-46.0
991,171.0,-977.0,183.0,-32.0,165.0,-60.0
992,167.0,-975.0,188.0,-23.0,178.0,-65.0
993,167.0,-968.0,182.0,-14.0,195.0,-85.0
994,162.0,-952.0,186.0,-5.0,196.0,-79.0
995,156.0,-969.0,181.0,-8.0,190.0,-71.0
996,188.0,-998.0,161.0,-14.0,171.0,-65.0
997,183.0,-1001.0,162.0,30.0,174.0,-37.0
998,180.0,-990.0,180.0,71.0,167.0,-4.0
999,176.0,-997.0,183.0,79.0,167.0,18.0
1000,175.0,-1003.0,182.0,91.0,168.0,27.0
1001,163.0,-1014.0,178.0,105.0,176.0,30.0
1002,195.0,-1237.0,249.0,683.0,120.0,-50.0
1003,226.0,-1226.0,237.0,790.0,105.0,-91.0
1004,214.0,-1187.0,237.0,904.0,140.0,-159.0
1005,156.0,-1136.0,266.0,973.0,187.0,-242.0
1006,126.0,-1168.0,268.0,982.0,174.0,-327.0
1007,100.0,-1181.0,285.0,1043.0,191.0,-290.0
1008,98.0,-1170.0,288.0,1103.0,196.0,-276.0
1009,117.0,-1168.0,295.0,1156.0,186.0,-303.0
1010,139.0,-1182.0,288.0,1199.0,183.0,-314.0
1011,180.0,-1173.0,288.0,1264.0,183.0,-348.0
1012,204.0,-1191.0,279.0,1309.0,212.0,-396.0
1013,242.0,-1218.0,283.0,1374.0,234.0,-452.0
1014,273.0,-1258.0,275.0,1437.0,267.0,-515.0
1015,318.0,-1262.0,264.0,1531.0,309.0,-565.0
1016,349.0,-1237.0,272.0,1629.0,376.0,-602.0
1017,380.0,-1237.0,267.0,1687.0,452.0,-647.0
1018,376.0,-1210.0,263.0,1763.0,557.0,-693.0
1019,375.0,-1170.0,274.0,1831.0,664.0,-721.0
1020,226.0,-1044.0,339.0,1923.0,926.0,-646.0
1021,6.0,-578.0,94.0,-1320.0,-417.0,409.0
1022,49.0,-582.0,138.0,-1385.0,-446.0,436.0
1023,101.0,-606.0,167.0,-1479.0,-457.0,477.0
1024,130.0,-642.0,192.0,-1568.0,-439.0,521.0
1025,118.0,-686.0,223.0,-1647.0,-404.0,544.0
1026,76.0,-748.0,268.0,-1716.0,-396.0,552.0
1027,53.0,-819.0,302.0,-1768.0,-440.0,556.0
1028,29.0,-867.0,347.0,-1788.0,-505.0,561.0
1029,15.0,-941.0,425.0,-1814.0,-596.0,570.0
1030,70.0,-1034.0,477.0,-1831.0,-731.0,583.0
1031,143.0,-1088.0,527.0,-1783.0,-829.0,591.0
1032,216.0,-1114.0,555.0,-1713.0,-881.0,584.0
1033,290.0,-1100.0,559.0,-1633.0,-891.0,565.0
1034,355.0,-1063.0,539.0,-1571.0,-853.0,544.0
1035,358.0,-1012.0,534.0,-1539.0,-769.0,524.0
1036,261.0,-1047.0,684.0,-812.0,-1294.0,230.0
1037,-32.0,-1113.0,199.0,135.0,338.0,531.0
1038,90.0,-949.0,202.0,43.0,67.0,-45.0
1039,90.0,-955.0,205.0,27.0,63.0,-35.0
1040,88.0,-968.0,199.0,11.0,64.0,-34.0
1041,84.0,-968.0,208.0,5.0,68.0,-37.0
1042,85.0,-983.0,202.0,-19.0,71.0,-42.0
1043,89.0,-996.0,198.0,-36.0,76.0,-52.0
1044,94.0,-1000.0,194.0,-47.0,79.0,-59.0
1045,96.0,-1005.0,187.0,-54.0,81.0,-63.0
1046,94.0,-970.0,198.0,2.0,88.0,-22.0
1047,84.0,-969.0,197.0,-13.0,153.0,0.0
1048,73.0,-964.0,199.0,-19.0,156.0,-6.0
1049,68.0,-969.0,195.0,-26.0,153.0,-14.0
1050,71.0,-969.0,197.0,-25.0,144.0,-23.0
1051,71.0,-976.0,197.0,-27.0,136.0,-31.0
1052,77.0,-974.0,195.0,-31.0,127.0,-39.0
1053,73.0,-973.0,197.0,-33.0,124.0,-43.0
1054,80.0,-981.0,191.0,-42.0,116.0,-47.0
1055,91.0,-972.0,192.0,-38.0,112.0,-56.0
1056,85.0,-968.0,194.0,-37.0,113.0,-54.0
1057,85.0,-969.0,194.0,-40.0,112.0,-52.0
1058,95.0,-969.0,193.0,-34.0,114.0,-42.0
1059,81.0,-973.0,192.0,32.0,58.0,-61.0
1060,84.0,-971.0,193.0,33.0,57.0,-67.0
1061,91.0,-980.0,190.0,32.0,54.0,-71.0
1062,97.0,-983.0,188.0,38.0,54.0,-73.0
1063,93.0,-979.0,191.0,50.0,55.0,-70.0
1064,100.0,-981.0,186.0,52.0,51.0,-70.0
1065,95.0,-982.0,191.0,60.0,52.0,-71.0
1066,95.0,-978.0,193.0,63.0,52.0,-75.0
1067,97.0,-970.0,196.0,64.0,52.0,-80.0
1068,90.0,-960.0,201.0,63.0,54.0,-82.0
1069,87.0,-960.0,199.0,55.0,54.0,-85.0
1070,103.0,-951.0,212.0,91.0,16.0,-126.0
1071,147.0,-977.0,199.0,-6.0,16.0,-80.0
1072,146.0,-961.0,204.0,16.0,10.0,-63.0
1073,137.0,-919.0,237.0,39.0,7.0,-46.0
1074,117.0,-961.0,211.0,-29.0,18.0,-41.0
1075,138.0,-972.0,216.0,-30.0,17.0,-60.0
1076,129.0,-973.0,215.0,-33.0,18.0,-63.0
1077,128.0,-989.0,201.0,-45.0,18.0,-64.0
1078,134.0,-988.0,197.0,-33.0,10.0,-71.0
1079,135.0,-997.0,201.0,-25.0,6.0,-73.0
1080,145.0,-984.0,214.0,-14.0,-2.0,-74.0
1081,140.0,-994.0,206.0,-34.0,5.0,-73.0
1082,142.0,-945.0,207.0,-89.0,-8.0,-136.0
1083,192.0,-990.0,157.0,-59.0,-47.0,-80.0
1084,193.0,-971.0,166.0,-22.0,-43.0,-59.0
1085,204.0,-976.0,158.0,-14.0,-45.0,-35.0
1086,205.0,-965.0,169.0,10.0,-43.0,-5.0
1087,203.0,-950.0,182.0,20.0,-40.0,24.0
1088,183.0,-927.0,211.0,21.0,-34.0,45.0
1089,154.0,-938.0,206.0,-19.0,-30.0,48.0
1090,153.0,-952.0,195.0,-50.0,-39.0,35.0
1091,156.0,-969.0,178.0,-66.0,-45.0,21.0
1092,168.0,-987.0,157.0,-72.0,-48.0,8.0
1093,167.0,-993.0,149.0,-55.0,-45.0,2.0
1094,165.0,-983.0,167.0,-24.0,-45.0,-1.0
1095,171.0,-991.0,151.0,-25.0,-48.0,-7.0
1096,179.0,-989.0,151.0,-6.0,-45.0,-6.0
1097,174.0,-978.0,163.0,17.0,-41.0,2.0
1098,165.0,-977.0,167.0,39.0,-23.0,5.0
1099,162.0,-961.0,189.0,-25.0,6.0,-17.0
1100,164.0,-960.0,161.0,-53.0,12.0,5.0
1101,179.0,-966.0,149.0,-48.0,8.0,14.0
1102,175.0,-955.0,167.0,-28.0,12.0,20.0
1103,184.0,-944.0,176.0,-19.0,15.0,27.0
1104,188.0,-941.0,178.0,-26.0,24.0,29.0
1105,183.0,-950.0,172.0,-35.0,39.0,40.0
1106,157.0,-968.0,171.0,-40.0,50.0,57.0
1107,152.0,-956.0,184.0,-34.0,35.0,62.0
1108,142.0,-954.0,196.0,-49.0,22.0,53.0
1109,172.0,-937.0,192.0,-75.0,8.0,39.0
1110,119.0,-937.0,218.0,-109.0,13.0,47.0
1111,124.0,-1152.0,-77.0,-42.0,-2656.0,403.0
1112,74.0,-852.0,-193.0,645.0,-3612.0,-84.0
1113,132.0,-801.0,-192.0,612.0,-3645.0,-48.0
1114,205.0,-745.0,-176.0,537.0,-3646.0,8.0
1115,254.0,-791.0,-153.0,391.0,-3595.0,32.0
1116,230.0,-864.0,-113.0,298.0,-3509.0,47.0
1117,174.0,-899.0,-66.0,312.0,-3426.0,59.0
1118,206.0,-882.0,-35.0,363.0,-3407.0,54.0
1119,286.0,-845.0,-4.0,402.0,-3386.0,33.0
1120,392.0,-826.0,-4.0,410.0,-3329.0,-10.0
1121,442.0,-854.0,23.0,422.0,-3207.0,-93.0
1122,28.0,-815.0,440.0,469.0,198.0,178.0
1123,24.0,-960.0,323.0,21.0,192.0,97.0
1124,4.0,-1102.0,151.0,-190.0,195.0,11.0
1125,23.0,-1168.0,43.0,-188.0,166.0,-105.0
1126,36.0,-1099.0,97.0,1.0,134.0,-199.0
1127,46.0,-1034.0,147.0,81.0,103.0,-261.0
1128,95.0,-1009.0,163.0,69.0,69.0,-306.0
1129,125.0,-994.0,160.0,44.0,53.0,-313.0
1130,124.0,-978.0,162.0,29.0,42.0,-287.0
1131,132.0,-964.0,155.0,26.0,25.0,-254.0
1132,152.0,-967.0,155.0,29.0,20.0,-218.0
1133,112.0,-955.0,181.0,122.0,-49.0,-271.0
1134,146.0,-966.0,186.0,115.0,-61.0,-262.0
1135,159.0,-1003.0,162.0,94.0,-56.0,-245.0
1136,183.0,-1005.0,150.0,108.0,-58.0,-222.0
1137,178.0,-990.0,164.0,128.0,-53.0,-176.0
1138,189.0,-975.0,169.0,129.0,-56.0,-135.0
1139,187.0,-961.0,182.0,124.0,-48.0,-96.0
1140,201.0,-957.0,184.0,109.0,-39.0,-58.0
1141,186.0,-957.0,189.0,92.0,-14.0,-14.0
1142,158.0,-965.0,196.0,73.0,11.0,14.0
1143,141.0,-976.0,191.0,45.0,23.0,19.0
1144,140.0,-966.0,186.0,12.0,47.0,8.0
1145,132.0,-977.0,179.0,10.0,50.0,13.0
1146,133.0,-975.0,173.0,19.0,47.0,16.0
1147,132.0,-971.0,176.0,33.0,46.0,19.0
1148,137.0,-971.0,178.0,41.0,39.0,20.0
1149,138.0,-982.0,181.0,44.0,35.0,24.0
1150,143.0,-986.0,183.0,45.0,33.0,29.0
1151,150.0,-988.0,181.0,39.0,34.0,34.0
1152,146.0,-997.0,181.0,37.0,41.0,43.0
1153,164.0,-1008.0,176.0,37.0,42.0,50.0
1154,167.0,-1020.0,175.0,42.0,52.0,66.0
1155,27.0,-1171.0,210.0,464.0,-133.0,338.0
1156,-56.0,-799.0,-148.0,-145.0,-2427.0,267.0
1157,-5.0,-796.0,-147.0,-188.0,-2520.0,250.0
1158,22.0,-802.0,-131.0,-237.0,-2592.0,227.0
1159,58.0,-830.0,-112.0,-281.0,-2660.0,208.0
1160,76.0,-837.0,-73.0,-301.0,-2715.0,184.0
1161,112.0,-829.0,-35.0,-327.0,-2774.0,194.0
1162,139.0,-813.0,-12.0,-376.0,-2825.0,243.0
1163,184.0,-840.0,5.0,-464.0,-2858.0,288.0
1164,186.0,-1404.0,-417.0,504.0,287.0,234.0
1165,333.0,-1140.0,-61.0,1282.0,322.0,193.0
1166,25.0,-768.0,670.0,1569.0,433.0,301.0
1167,47.0,-815.0,652.0,799.0,307.0,292.0
1168,-6.0,-993.0,303.0,204.0,277.0,181.0
1169,-36.0,-1032.0,229.0,144.0,243.0,43.0
1170,-46.0,-1033.0,194.0,135.0,168.0,-113.0
1171,-8.0,-1032.0,177.0,168.0,101.0,-267.0
1172,16.0,-968.0,260.0,227.0,67.0,-387.0
1173,57.0,-960.0,261.0,171.0,23.0,-463.0
1174,135.0,-949.0,244.0,119.0,-22.0,-490.0
1175,171.0,-962.0,228.0,63.0,-37.0,-154.0
1176,156.0,-955.0,232.0,4.0,-8.0,-118.0
1177,173.0,-942.0,236.0,14.0,-17.0,-117.0
1178,195.0,-940.0,228.0,11.0,-17.0,-106.0
1179,197.0,-928.0,242.0,13.0,-10.0,-82.0
1180,196.0,-937.0,237.0,-2.0,-1.0,-57.0
1181,192.0,-941.0,237.0,-8.0,6.0,-35.0
1182,167.0,-943.0,242.0,-13.0,16.0,-18.0
1183,161.0,-947.0,240.0,-19.0,8.0,-11.0
1184,163.0,-957.0,234.0,-25.0,-2.0,-14.0
1185,174.0,-963.0,226.0,-26.0,-10.0,-16.0
1186,192.0,-951.0,231.0,-20.0,-16.0,-11.0
1187,170.0,-957.0,234.0,9.0,91.0,58.0
1188,146.0,-973.0,232.0,-47.0,71.0,64.0
1189,138.0,-975.0,238.0,-53.0,73.0,56.0
1190,148.0,-976.0,235.0,-61.0,69.0,43.0
1191,149.0,-976.0,234.0,-72.0,69.0,36.0
1192,148.0,-972.0,236.0,-79.0,70.0,32.0
1193,168.0,-961.0,233.0,-87.0,79.0,27.0
1194,173.0,-950.0,238.0,-92.0,103.0,37.0
1195,178.0,-948.0,251.0,-105.0,118.0,57.0
1196,168.0,-926.0,270.0,-131.0,111.0,84.0
1197,141.0,-918.0,288.0,-184.0,90.0,96.0
1198,118.0,-955.0,291.0,-262.0,58.0,95.0
1199,160.0,-903.0,26.0,191.0,-1619.0,178.0
1200,109.0,-884.0,-5.0,198.0,-1650.0,85.0
1201,36.0,-869.0,-53.0,181.0,-1689.0,13.0
1202,-111.0,-871.0,-59.0,161.0,-1727.0,-37.0
1203,-79.0,-856.0,-112.0,138.0,-1871.0,-67.0
1204,-54.0,-785.0,-115.0,138.0,-1969.0,-45.0
1205,50.0,-1027.0,0.0,-126.0,254.0,360.0
1206,64.0,-1199.0,-232.0,-68.0,390.0,207.0
1207,185.0,-1170.0,-161.0,387.0,400.0,61.0
1208,-46.0,-1102.0,202.0,761.0,501.0,-2.0
1209,112.0,-886.0,453.0,795.0,300.0,-104.0
1210,206.0,-846.0,494.0,414.0,146.0,-69.0
1211,124.0,-1033.0,279.0,-20.0,197.0,-12.0
1212,69.0,-1098.0,128.0,-120.0,215.0,-65.0
1213,86.0,-1110.0,70.0,-46.0,166.0,-148.0
1214,114.0,-1010.0,131.0,131.0,127.0,-206.0
1215,91.0,-950.0,220.0,198.0,127.0,-231.0
1216,140.0,-1000.0,189.0,33.0,-5.0,-169.0
1217,187.0,-939.0,232.0,186.0,40.0,-57.0
1218,178.0,-945.0,236.0,166.0,41.0,-40.0
1219,183.0,-973.0,224.0,137.0,43.0,-25.0
1220,181.0,-978.0,221.0,124.0,46.0,-14.0
1221,188.0,-973.0,220.0,114.0,48.0,-6.0
1222,184.0,-955.0,234.0,107.0,51.0,7.0
1223,191.0,-947.0,236.0,87.0,53.0,17.0
1224,189.0,-950.0,232.0,64.0,60.0,25.0
1225,181.0,-942.0,239.0,51.0,67.0,34.0
1226,170.0,-945.0,243.0,32.0,73.0,37.0
1227,164.0,-953.0,240.0,8.0,79.0,29.0
1228,215.0,-981.0,203.0,-45.0,95.0,74.0
1229,207.0,-979.0,213.0,-38.0,111.0,112.0
1230,197.0,-979.0,220.0,-43.0,121.0,141.0
1231,193.0,-978.0,216.0,-55.0,133.0,158.0
1232,166.0,-957.0,230.0,-62.0,149.0,166.0
1233,136.0,-945.0,240.0,-81.0,156.0,157.0
1234,121.0,-944.0,236.0,-104.0,154.0,128.0
1235,128.0,-959.0,222.0,-114.0,146.0,92.0
1236,154.0,-961.0,219.0,-8.0,103.0,11.0
1237,148.0,-961.0,214.0,-28.0,122.0,15.0
1238,137.0,-958.0,217.0,-34.0,132.0,11.0
1239,130.0,-967.0,216.0,-41.0,135.0,2.0
1240,137.0,-976.0,204.0,-44.0,134.0,-9.0
1241,145.0,-980.0,205.0,-32.0,132.0,-17.0
1242,147.0,-969.0,211.0,-19.0,129.0,-19.0
1243,137.0,-962.0,219.0,-16.0,128.0,-16.0
1244,127.0,-962.0,214.0,-26.0,125.0,-19.0
1245,132.0,-965.0,209.0,-32.0,118.0,-28.0
1246,133.0,-949.0,218.0,-29.0,109.0,-33.0
1247,139.0,-964.0,216.0,-3.0,91.0,-7.0
1248,139.0,-969.0,215.0,-7.0,90.0,-4.0
1249,141.0,-977.0,209.0,-11.0,90.0,-3.0
1250,138.0,-980.0,209.0,-10.0,91.0,-5.0
1251,130.0,-976.0,211.0,-8.0,92.0,-9.0
1252,125.0,-974.0,209.0,-9.0,90.0,-16.0
1253,125.0,-962.0,213.0,-6.0,85.0,-25.0
1254,123.0,-954.0,220.0,-6.0,83.0,-30.0
1255,129.0,-954.0,221.0,-11.0,78.0,-35.0
1256,135.0,-956.0,219.0,-20.0,75.0,-37.0
1257,139.0,-959.0,214.0,-27.0,73.0,-33.0
1258,119.0,-957.0,220.0,30.0,63.0,-42.0
1259,128.0,-958.0,220.0,20.0,60.0,-56.0
1260,136.0,-959.0,218.0,11.0,55.0,-60.0
1261,140.0,-962.0,212.0,4.0,55.0,-59.0
1262,144.0,-965.0,207.0,2.0,56.0,-55.0
1263,148.0,-960.0,212.0,6.0,58.0,-48.0
1264,147.0,-959.0,213.0,5.0,63.0,-39.0
1265,146.0,-963.0,215.0,4.0,67.0,-30.0
1266,147.0,-964.0,211.0,0.0,71.0,-22.0
1267,134.0,-961.0,217.0,2.0,76.0,-15.0
1268,142.0,-956.0,205.0,-27.0,55.0,-95.0
1269,141.0,-964.0,201.0,-23.0,58.0,-92.0
1270,149.0,-968.0,194.0,-19.0,59.0,-93.0
1271,139.0,-958.0,208.0,-6.0,63.0,-90.0
1272,136.0,-954.0,209.0,-8.0,60.0,-89.0
1273,121.0,-955.0,202.0,-11.0,60.0,-91.0
1274,109.0,-955.0,204.0,-7.0,57.0,-104.0
1275,122.0,-951.0,209.0,1.0,47.0,-124.0
1276,133.0,-968.0,184.0,-3.0,41.0,-140.0
1277,110.0,-965.0,195.0,21.0,43.0,-151.0
1278,115.0,-960.0,216.0,43.0,26.0,-166.0
1279,189.0,-965.0,215.0,22.0,-41.0,-199.0
1280,193.0,-950.0,222.0,42.0,32.0,-74.0
1281,196.0,-969.0,208.0,26.0,32.0,-74.0
1282,205.0,-955.0,219.0,36.0,30.0,-70.0
1283,213.0,-949.0,222.0,30.0,27.0,-58.0
1284,210.0,-953.0,216.0,18.0,33.0,-45.0
1285,197.0,-944.0,224.0,20.0,38.0,-36.0
1286,197.0,-951.0,223.0,14.0,40.0,-33.0
1287,198.0,-961.0,215.0,7.0,44.0,-36.0
1288,207.0,-967.0,211.0,9.0,49.0,-40.0
1289,210.0,-967.0,209.0,18.0,55.0,-40.0
1290,200.0,-954.0,218.0,31.0,61.0,-37.0
1291,197.0,-944.0,229.0,38.0,61.0,-35.0
1292,193.0,-945.0,226.0,27.0,60.0,-38.0
1293,198.0,-954.0,216.0,20.0,61.0,-41.0
1294,199.0,-947.0,225.0,28.0,64.0,-42.0
1295,204.0,-949.0,221.0,33.0,68.0,-39.0
1296,184.0,-937.0,236.0,42.0,98.0,16.0
1297,182.0,-932.0,240.0,37.0,97.0,7.0
1298,183.0,-930.0,243.0,23.0,101.0,-5.0
1299,193.0,-932.0,240.0,6.0,99.0,-11.0
1300,203.0,-923.0,245.0,-3.0,100.0,-6.0
1301,209.0,-933.0,237.0,-28.0,105.0,8.0
1302,210.0,-939.0,234.0,-38.0,111.0,28.0
1303,202.0,-957.0,225.0,-45.0,117.0,49.0
1304,197.0,-971.0,224.0,-40.0,123.0,59.0
1305,206.0,-1006.0,226.0,-33.0,124.0,64.0
1306,232.0,-1043.0,168.0,-22.0,124.0,71.0
1307,193.0,-958.0,236.0,76.0,131.0,93.0
1308,188.0,-959.0,225.0,66.0,123.0,105.0
1309,169.0,-938.0,252.0,75.0,119.0,110.0
1310,165.0,-949.0,250.0,57.0,110.0,105.0
1311,173.0,-1067.0,255.0,236.0,175.0,67.0
1312,197.0,-1103.0,279.0,854.0,123.0,-145.0
1313,330.0,-1271.0,358.0,1664.0,278.0,-186.0
1314,405.0,-1321.0,350.0,1740.0,316.0,-189.0
1315,485.0,-1358.0,340.0,1858.0,371.0,-214.0
1316,561.0,-1409.0,350.0,1970.0,449.0,-279.0
1317,616.0,-1493.0,347.0,2077.0,551.0,-351.0
1318,689.0,-1542.0,362.0,2236.0,659.0,-426.0
1319,679.0,-1539.0,311.0,2395.0,847.0,-480.0
1320,618.0,-1508.0,253.0,2529.0,1050.0,-499.0
1321,533.0,-1464.0,128.0,2612.0,1265.0,-503.0
1322,453.0,-1370.0,120.0,2717.0,1398.0,-536.0
1323,348.0,-1266.0,205.0,2798.0,1477.0,-596.0
1324,244.0,-1092.0,417.0,2831.0,1412.0,-502.0
1325,44.0,-521.0,-288.0,-3281.0,-555.0,204.0
1326,39.0,-1016.0,-116.0,-3761.0,-862.0,383.0
1327,135.0,-1080.0,-74.0,-3758.0,-1002.0,355.0
1328,205.0,-1161.0,13.0,-3786.0,-1094.0,297.0
1329,293.0,-1314.0,110.0,-3855.0,-1161.0,249.0
1330,333.0,-1464.0,237.0,-3872.0,-1182.0,220.0
1331,323.0,-1589.0,352.0,-3821.0,-1180.0,200.0
1332,392.0,-1650.0,426.0,-3706.0,-1246.0,198.0
1333,462.0,-1686.0,462.0,-3567.0,-1303.0,203.0
1334,559.0,-1700.0,477.0,-3440.0,-1338.0,167.0
1335,679.0,-1714.0,477.0,-3345.0,-1337.0,108.0
1336,791.0,-1716.0,488.0,-3260.0,-1241.0,39.0
1337,-41.0,-1150.0,903.0,-611.0,96.0,-97.0
1338,-44.0,-1013.0,830.0,-363.0,109.0,-63.0
1339,-31.0,-1002.0,727.0,-251.0,77.0,-69.0
1340,-89.0,-1069.0,637.0,-138.0,44.0,-53.0
1341,-196.0,-1052.0,584.0,78.0,-30.0,-11.0
1342,-215.0,-1002.0,544.0,272.0,-212.0,26.0
1343,-145.0,-1036.0,490.0,382.0,-430.0,53.0
1344,1075.0,-1697.0,-1722.0,1456.0,-1140.0,469.0
1345,785.0,-1633.0,-1470.0,2526.0,807.0,98.0
1346,13.0,-1533.0,-1044.0,2199.0,2543.0,-542.0
1347,218.0,-1110.0,-109.0,3516.0,1157.0,104.0
1348,42.0,-250.0,1188.0,3463.0,751.0,111.0
1349,35.0,-742.0,646.0,1677.0,507.0,68.0
1350,207.0,-851.0,123.0,1285.0,449.0,-41.0
1351,346.0,-923.0,102.0,710.0,98.0,165.0
1352,265.0,-958.0,118.0,731.0,144.0,355.0
1353,172.0,-942.0,221.0,247.0,119.0,-117.0
1354,194.0,-969.0,215.0,109.0,111.0,-261.0
1355,221.0,-990.0,192.0,94.0,102.0,-310.0
1356,226.0,-970.0,206.0,108.0,106.0,-329.0
1357,238.0,-989.0,190.0,104.0,110.0,-333.0
1358,281.0,-972.0,189.0,116.0,103.0,-328.0
1359,258.0,-941.0,208.0,150.0,126.0,-282.0
1360,279.0,-943.0,193.0,142.0,126.0,-242.0
1361,270.0,-921.0,204.0,165.0,138.0,-185.0
1362,255.0,-908.0,206.0,172.0,141.0,-123.0
1363,262.0,-892.0,213.0,175.0,128.0,-67.0
1364,267.0,-883.0,219.0,173.0,113.0,-6.0
1365,246.0,-1046.0,165.0,-139.0,51.0,63.0
1366,187.0,-968.0,233.0,-28.0,72.0,80.0
1367,173.0,-963.0,239.0,-33.0,63.0,75.0
1368,198.0,-1005.0,190.0,-63.0,51.0,50.0
1369,202.0,-963.0,223.0,2.0,55.0,39.0
1370,194.0,-936.0,249.0,14.0,61.0,39.0
1371,194.0,-935.0,249.0,-9.0,62.0,35.0
1372,181.0,-941.0,247.0,-18.0,65.0,29.0
1373,177.0,-952.0,255.0,-21.0,69.0,9.0
1374,201.0,-1045.0,256.0,291.0,217.0,-14.0
1375,221.0,-1072.0,249.0,322.0,207.0,-18.0
1376,244.0,-1087.0,250.0,368.0,219.0,-17.0
1377,249.0,-1093.0,256.0,415.0,243.0,-3.0
1378,244.0,-1094.0,264.0,462.0,267.0,9.0
1379,227.0,-1072.0,278.0,533.0,276.0,21.0
1380,196.0,-1093.0,269.0,581.0,283.0,23.0
1381,141.0,-1046.0,313.0,700.0,285.0,5.0
1382,138.0,-1038.0,325.0,739.0,218.0,-20.0
1383,242.0,-1031.0,336.0,959.0,185.0,-113.0
1384,188.0,-1358.0,373.0,1852.0,238.0,-490.0
1385,609.0,-1305.0,-136.0,3054.0,1265.0,-446.0
1386,487.0,-1287.0,-237.0,2956.0,1481.0,-523.0
1387,277.0,-1381.0,20.0,2919.0,1625.0,-592.0
1388,121.0,-1207.0,397.0,3196.0,1440.0,-497.0
1389,103.0,-935.0,639.0,3387.0,1123.0,-331.0
1390,175.0,-793.0,665.0,3300.0,866.0,-218.0
1391,371.0,-732.0,574.0,3132.0,652.0,-157.0
1392,474.0,-721.0,440.0,2978.0,636.0,-125.0
1393,420.0,-604.0,330.0,2897.0,797.0,-160.0
1394,65.0,-319.0,256.0,2791.0,1045.0,-215.0
1395,-368.0,-90.0,151.0,2399.0,1079.0,-101.0
1396,-326.0,302.0,-69.0,1808.0,442.0,255.0
1397,-43.0,671.0,-366.0,793.0,-191.0,629.0
1398,-323.0,512.0,-312.0,-733.0,-165.0,895.0
1399,-76.0,-359.0,-381.0,-2113.0,-654.0,1055.0
1400,218.0,-867.0,-126.0,-3999.0,-288.0,419.0
1401,345.0,-1707.0,404.0,-3906.0,-981.0,-192.0
1402,323.0,-1709.0,416.0,-3419.0,-1158.0,-278.0
1403,266.0,-1657.0,448.0,-3417.0,-1090.0,-253.0
1404,354.0,-1792.0,469.0,-3558.0,-1030.0,-130.0
1405,467.0,-1953.0,475.0,-3579.0,-900.0,53.0
1406,495.0,-1958.0,557.0,-3343.0,-654.0,181.0
1407,586.0,-1883.0,607.0,-3069.0,-445.0,234.0
1408,684.0,-1782.0,624.0,-2836.0,-229.0,227.0
1409,778.0,-1740.0,583.0,-2628.0,13.0,168.0
1410,720.0,-1593.0,594.0,-2335.0,307.0,42.0
1411,417.0,-1408.0,644.0,-2079.0,603.0,-171.0
1412,140.0,-1357.0,716.0,-1986.0,707.0,-390.0
1413,252.0,-891.0,143.0,514.0,-484.0,-48.0
1414,236.0,-919.0,145.0,529.0,-428.0,-55.0
1415,239.0,-968.0,124.0,556.0,-378.0,-33.0
1416,217.0,-1089.0,211.0,645.0,-320.0,-19.0
1417,248.0,-1238.0,85.0,910.0,-313.0,-30.0
1418,223.0,-561.0,347.0,1533.0,-219.0,-11.0
1419,250.0,-824.0,89.0,871.0,-180.0,75.0
1420,311.0,-960.0,-176.0,613.0,-126.0,121.0
1421,589.0,-1675.0,-915.0,546.0,-151.0,226.0
1422,338.0,-832.0,188.0,1092.0,153.0,-63.0
1423,192.0,-922.0,199.0,310.0,161.0,-279.0
1424,240.0,-938.0,169.0,248.0,113.0,-294.0
1425,307.0,-928.0,166.0,229.0,88.0,-279.0
1426,281.0,-916.0,191.0,227.0,93.0,-220.0
1427,266.0,-931.0,174.0,184.0,96.0,-193.0
1428,258.0,-928.0,184.0,166.0,109.0,-190.0
1429,280.0,-925.0,177.0,145.0,116.0,-177.0
1430,289.0,-938.0,170.0,113.0,139.0,-153.0
1431,287.0,-937.0,167.0,103.0,156.0,-117.0
1432,292.0,-961.0,132.0,84.0,171.0,-79.0
1433,315.0,-967.0,124.0,110.0,176.0,-29.0
1434,206.0,-956.0,198.0,135.0,140.0,96.0
1435,175.0,-945.0,226.0,128.0,94.0,105.0
1436,187.0,-950.0,234.0,119.0,84.0,88.0
1437,197.0,-971.0,219.0,106.0,78.0,75.0
1438,205.0,-976.0,219.0,113.0,78.0,68.0
1439,217.0,-976.0,218.0,124.0,78.0,66.0
1440,221.0,-975.0,221.0,133.0,85.0,72.0
1441,214.0,-961.0,233.0,147.0,97.0,80.0
1442,207.0,-956.0,236.0,143.0,107.0,82.0
1443,203.0,-950.0,241.0,142.0,114.0,78.0
1444,191.0,-947.0,243.0,136.0,124.0,74.0
1445,177.0,-960.0,242.0,131.0,134.0,64.0
1446,175.0,-1012.0,272.0,265.0,250.0,-9.0
1447,170.0,-1066.0,342.0,844.0,104.0,-161.0
1448,171.0,-1074.0,344.0,870.0,105.0,-160.0
1449,192.0,-1088.0,359.0,902.0,96.0,-155.0
1450,226.0,-1111.0,358.0,931.0,86.0,-150.0
1451,252.0,-1144.0,361.0,972.0,97.0,-148.0
1452,280.0,-1175.0,359.0,1022.0,117.0,-144.0
1453,320.0,-1176.0,361.0,1090.0,139.0,-146.0
1454,320.0,-1168.0,355.0,1148.0,182.0,-159.0
1455,260.0,-1185.0,368.0,1197.0,237.0,-186.0
1456,438.0,-1046.0,303.0,2167.0,1035.0,-599.0
1457,420.0,-960.0,335.0,2177.0,1074.0,-661.0
1458,308.0,-1050.0,447.0,2094.0,1190.0,-680.0
1459,148.0,-1028.0,584.0,2193.0,1230.0,-670.0
1460,44.0,-911.0,716.0,2332.0,1127.0,-577.0
1461,64.0,-860.0,731.0,2335.0,915.0,-435.0
1462,193.0,-829.0,674.0,2306.0,695.0,-287.0
1463,344.0,-813.0,623.0,2267.0,620.0,-142.0
1464,277.0,-833.0,572.0,2209.0,783.0,47.0
1465,194.0,-765.0,541.0,2212.0,829.0,262.0
1466,280.0,-698.0,483.0,2169.0,650.0,407.0
1467,341.0,-640.0,416.0,2096.0,594.0,402.0
1468,273.0,-478.0,366.0,2048.0,675.0,337.0
1469,131.0,-203.0,326.0,1933.0,725.0,340.0
1470,19.0,136.0,285.0,1609.0,595.0,391.0
1471,191.0,-346.0,-3.0,-2897.0,-471.0,93.0
1472,139.0,-1285.0,533.0,-2717.0,-466.0,51.0
1473,155.0,-1292.0,518.0,-2636.0,-551.0,3.0
1474,221.0,-1309.0,477.0,-2559.0,-658.0,-32.0
1475,282.0,-1328.0,440.0,-2470.0,-728.0,-58.0
1476,315.0,-1321.0,405.0,-2363.0,-756.0,-92.0
1477,314.0,-1277.0,395.0,-2254.0,-765.0,-134.0
1478,278.0,-1253.0,375.0,-2197.0,-769.0,-176.0
1479,246.0,-1228.0,349.0,-2160.0,-799.0,-209.0
1480,211.0,-1222.0,327.0,-2154.0,-837.0,-231.0
1481,187.0,-1238.0,315.0,-2158.0,-877.0,-238.0
1482,208.0,-1237.0,313.0,-2137.0,-916.0,-225.0
1483,126.0,-1223.0,229.0,-1382.0,-258.0,-134.0
1484,236.0,-1193.0,243.0,-1228.0,-370.0,-164.0
1485,327.0,-1138.0,298.0,-1072.0,-390.0,-199.0
1486,388.0,-1104.0,307.0,-966.0,-320.0,-237.0
1487,417.0,-993.0,294.0,-855.0,-179.0,-252.0
1488,371.0,-937.0,324.0,-840.0,3.0,-255.0
1489,309.0,-1042.0,330.0,-899.0,183.0,-264.0
1490,241.0,-1098.0,341.0,-806.0,360.0,-249.0
1491,143.0,-1049.0,347.0,-619.0,526.0,-209.0
1492,115.0,-980.0,225.0,-390.0,611.0,-131.0
1493,60.0,-934.0,185.0,927.0,-315.0,38.0
1494,118.0,-1053.0,-70.0,1441.0,398.0,-468.0
1495,113.0,-993.0,-11.0,1530.0,192.0,-542.0
1496,143.0,-985.0,-12.0,1477.0,110.0,-662.0
1497,138.0,-894.0,57.0,1456.0,159.0,-764.0
1498,334.0,-827.0,106.0,1334.0,117.0,-818.0
1499,397.0,-815.0,137.0,1150.0,195.0,-729.0
1500,428.0,-821.0,137.0,992.0,285.0,-561.0
1501,350.0,-892.0,105.0,856.0,345.0,-378.0
1502,326.0,-890.0,147.0,828.0,278.0,-229.0
1503,328.0,-863.0,168.0,800.0,168.0,-96.0
1504,340.0,-913.0,102.0,705.0,118.0,1.0
1505,182.0,-951.0,200.0,388.0,150.0,419.0
1506,180.0,-939.0,242.0,129.0,97.0,66.0
1507,196.0,-949.0,234.0,113.0,81.0,44.0
1508,213.0,-951.0,228.0,107.0,75.0,31.0
1509,230.0,-953.0,231.0,109.0,75.0,31.0
1510,259.0,-977.0,203.0,102.0,75.0,44.0
1511,226.0,-972.0,217.0,136.0,104.0,68.0
1512,216.0,-962.0,228.0,160.0,112.0,74.0
1513,212.0,-947.0,241.0,169.0,121.0,71.0
1514,203.0,-935.0,246.0,171.0,129.0,68.0
1515,202.0,-936.0,245.0,160.0,139.0,63.0
1516,188.0,-946.0,228.0,152.0,149.0,59.0
1517,202.0,-959.0,267.0,151.0,124.0,67.0
1518,184.0,-964.0,271.0,150.0,135.0,70.0
1519,179.0,-969.0,272.0,150.0,139.0,56.0
1520,191.0,-974.0,266.0,147.0,137.0,40.0
1521,197.0,-981.0,267.0,156.0,142.0,36.0
1522,202.0,-983.0,270.0,176.0,149.0,35.0
1523,200.0,-980.0,275.0,192.0,154.0,40.0
1524,190.0,-975.0,283.0,207.0,158.0,44.0
1525,192.0,-975.0,282.0,214.0,163.0,39.0
1526,207.0,-960.0,286.0,232.0,169.0,38.0
1527,175.0,-967.0,286.0,231.0,201.0,40.0
1528,179.0,-966.0,296.0,253.0,185.0,24.0
1529,224.0,-1107.0,398.0,772.0,183.0,-31.0
1530,203.0,-1180.0,413.0,819.0,194.0,-17.0
1531,268.0,-1183.0,402.0,906.0,171.0,4.0
1532,283.0,-1183.0,393.0,978.0,193.0,10.0
1533,236.0,-1197.0,409.0,1040.0,236.0,-2.0
1534,140.0,-1188.0,414.0,1109.0,260.0,-26.0
1535,68.0,-1164.0,430.0,1180.0,246.0,-57.0
1536,4.0,-1138.0,434.0,1238.0,214.0,-98.0
1537,-30.0,-1112.0,433.0,1286.0,166.0,-141.0
1538,5.0,-1045.0,424.0,1348.0,101.0,-184.0
1539,32.0,-973.0,431.0,1385.0,67.0,-218.0
1540,94.0,-910.0,446.0,1397.0,31.0,-232.0
1541,211.0,-844.0,449.0,1393.0,-9.0,-246.0
1542,311.0,-805.0,453.0,1360.0,8.0,-284.0
1543,368.0,-791.0,455.0,1310.0,76.0,-329.0
1544,445.0,-785.0,468.0,1229.0,234.0,-433.0
1545,-164.0,-216.0,-70.0,-1425.0,93.0,265.0
1546,175.0,-488.0,-75.0,-1941.0,-303.0,446.0
1547,51.0,-632.0,-91.0,-2072.0,-48.0,534.0
1548,-84.0,-428.0,-110.0,-1940.0,3.0,601.0
1549,-47.0,-166.0,-143.0,-2052.0,-210.0,620.0
1550,12.0,-123.0,-221.0,-2566.0,-373.0,526.0
1551,44.0,-302.0,-308.0,-3228.0,-481.0,396.0
1552,113.0,-594.0,-366.0,-3721.0,-621.0,348.0
1553,240.0,-867.0,-452.0,-3807.0,-748.0,381.0
1554,337.0,-833.0,-417.0,-3426.0,-696.0,301.0
1555,332.0,-682.0,-306.0,-3142.0,-584.0,184.0
1556,356.0,-1711.0,468.0,-3459.0,-573.0,-150.0
1557,397.0,-1293.0,361.0,-1896.0,-614.0,-279.0
1558,405.0,-1325.0,381.0,-1880.0,-402.0,-231.0
1559,430.0,-1397.0,420.0,-1824.0,-204.0,-190.0
1560,415.0,-1405.0,476.0,-1678.0,8.0,-164.0
1561,357.0,-1369.0,572.0,-1493.0,232.0,-156.0
1562,343.0,-1265.0,618.0,-1341.0,394.0,-169.0
1563,245.0,-1105.0,700.0,-1241.0,534.0,-242.0
1564,209.0,-1087.0,721.0,-1335.0,578.0,-360.0
1565,193.0,-1221.0,762.0,-1403.0,629.0,-400.0
1566,124.0,-1288.0,805.0,-1248.0,731.0,-335.0
1567,125.0,-1149.0,847.0,-935.0,797.0,-292.0
1568,181.0,-693.0,13.0,18.0,296.0,684.0
1569,289.0,-864.0,98.0,493.0,653.0,16.0
1570,262.0,-962.0,-82.0,342.0,657.0,79.0
1571,224.0,-972.0,-117.0,409.0,668.0,71.0
1572,182.0,-972.0,-100.0,467.0,656.0,42.0
1573,198.0,-907.0,-18.0,523.0,591.0,19.0
1574,221.0,-931.0,-2.0,444.0,506.0,39.0
1575,189.0,-987.0,-27.0,367.0,434.0,82.0
1576,150.0,-942.0,11.0,407.0,347.0,99.0
1577,143.0,-961.0,8.0,379.0,234.0,87.0
1578,178.0,-991.0,47.0,146.0,120.0,14.0
1579,174.0,-976.0,61.0,159.0,103.0,-19.0
1580,194.0,-993.0,36.0,139.0,81.0,-54.0
1581,204.0,-986.0,43.0,158.0,66.0,-76.0
1582,219.0,-957.0,76.0,187.0,55.0,-80.0
1583,231.0,-947.0,81.0,160.0,63.0,-76.0
1584,221.0,-955.0,84.0,126.0,88.0,-67.0
1585,216.0,-952.0,85.0,105.0,100.0,-61.0
1586,188.0,-979.0,64.0,70.0,115.0,-64.0
1587,267.0,-950.0,65.0,82.0,104.0,-67.0
1588,216.0,-999.0,34.0,46.0,141.0,-57.0
1589,213.0,-1013.0,11.0,-262.0,315.0,-90.0
1590,216.0,-963.0,94.0,-6.0,212.0,-10.0
1591,216.0,-965.0,103.0,-27.0,209.0,-16.0
1592,226.0,-973.0,91.0,-59.0,205.0,-24.0
1593,232.0,-987.0,77.0,-91.0,213.0,-34.0
1594,234.0,-993.0,82.0,-101.0,226.0,-44.0
1595,259.0,-1044.0,13.0,-140.0,243.0,-62.0
1596,309.0,-1071.0,-26.0,-103.0,284.0,-90.0
1597,315.0,-1003.0,49.0,27.0,335.0,-75.0
1598,314.0,-996.0,57.0,40.0,356.0,-25.0
1599,290.0,-1004.0,62.0,49.0,377.0,15.0
1600,280.0,-971.0,91.0,82.0,382.0,53.0
1601,514.0,-893.0,80.0,-466.0,1328.0,-671.0
1602,634.0,-795.0,-124.0,-912.0,4003.0,385.0
1603,192.0,-1061.0,-464.0,-906.0,5795.0,-260.0
1604,132.0,-1070.0,-431.0,-837.0,5900.0,-339.0
1605,90.0,-1132.0,-413.0,-821.0,5950.0,-388.0
1606,48.0,-1176.0,-372.0,-754.0,5960.0,-398.0
1607,-10.0,-1175.0,-335.0,-629.0,5925.0,-402.0
1608,-920.0,-1353.0,284.0,-496.0,5496.0,-400.0
1609,-1702.0,-1224.0,-721.0,897.0,-1778.0,-701.0
1610,59.0,-983.0,-26.0,2048.0,-4321.0,-1943.0
1611,-25.0,-998.0,-379.0,1068.0,-4507.0,-752.0
1612,324.0,-922.0,222.0,740.0,-391.0,-993.0
1613,365.0,-925.0,198.0,-105.0,147.0,-214.0
1614,370.0,-945.0,169.0,-120.0,178.0,-178.0
1615,356.0,-911.0,198.0,-90.0,198.0,-131.0
1616,357.0,-895.0,208.0,-97.0,228.0,-94.0
1617,340.0,-910.0,203.0,-125.0,275.0,-72.0
1618,312.0,-906.0,212.0,-120.0,285.0,-52.0
1619,317.0,-921.0,219.0,-127.0,275.0,-48.0
1620,330.0,-932.0,198.0,-143.0,282.0,-49.0
1621,329.0,-940.0,188.0,-144.0,289.0,-45.0
1622,342.0,-928.0,195.0,-117.0,257.0,-23.0
1623,334.0,-917.0,204.0,-99.0,239.0,0.0
1624,309.0,-944.0,191.0,-101.0,256.0,-18.0
1625,273.0,-904.0,231.0,-111.0,136.0,0.0
1626,294.0,-912.0,220.0,-148.0,124.0,-16.0
1627,287.0,-921.0,221.0,-166.0,131.0,-25.0
1628,282.0,-938.0,204.0,-190.0,143.0,-47.0
1629,295.0,-956.0,191.0,-193.0,143.0,-74.0
1630,311.0,-991.0,141.0,-182.0,153.0,-93.0
1631,329.0,-952.0,165.0,-108.0,153.0,-91.0
1632,324.0,-909.0,200.0,-52.0,146.0,-56.0
1633,308.0,-918.0,200.0,-61.0,149.0,-23.0
1634,302.0,-921.0,204.0,-58.0,141.0,-3.0
1635,304.0,-924.0,202.0,-59.0,133.0,8.0
1636,312.0,-934.0,191.0,-61.0,127.0,16.0
1637,324.0,-943.0,179.0,-61.0,131.0,25.0
1638,346.0,-947.0,175.0,-50.0,156.0,36.0
1639,298.0,-944.0,181.0,-42.0,203.0,45.0
1640,383.0,-826.0,235.0,-720.0,639.0,54.0
1641,692.0,-974.0,68.0,-1229.0,2242.0,356.0
1642,179.0,-766.0,-199.0,-212.0,2753.0,-25.0
1643,175.0,-788.0,-252.0,-342.0,2792.0,-43.0
1644,103.0,-823.0,-257.0,-427.0,2876.0,-66.0
1645,26.0,-874.0,-238.0,-491.0,2917.0,-77.0
1646,13.0,-907.0,-226.0,-523.0,2884.0,-75.0
1647,38.0,-904.0,-193.0,-532.0,2807.0,-75.0
1648,135.0,-958.0,-173.0,-584.0,2708.0,-85.0
1649,269.0,-995.0,-162.0,-587.0,2626.0,-110.0
1650,314.0,-1003.0,-122.0,-544.0,2630.0,-156.0
1651,-909.0,-989.0,765.0,716.0,683.0,181.0
1652,261.0,-900.0,251.0,325.0,-95.0,-141.0
1653,282.0,-909.0,244.0,94.0,70.0,-102.0
1654,256.0,-927.0,238.0,31.0,132.0,-94.0
1655,187.0,-959.0,234.0,-25.0,185.0,-106.0
1656,176.0,-994.0,202.0,-67.0,196.0,-160.0
1657,172.0,-951.0,237.0,-32.0,170.0,-213.0
1658,209.0,-951.0,224.0,-52.0,142.0,-253.0
1659,234.0,-971.0,212.0,-74.0,132.0,-268.0
1660,223.0,-978.0,196.0,-79.0,136.0,-262.0
1661,231.0,-924.0,234.0,-42.0,103.0,-243.0
1662,238.0,-907.0,240.0,-58.0,84.0,-218.0
1663,247.0,-915.0,228.0,-92.0,77.0,-193.0
1664,253.0,-927.0,212.0,-10.0,113.0,-53.0
1665,224.0,-939.0,218.0,-61.0,85.0,-69.0
1666,241.0,-948.0,209.0,-69.0,79.0,-84.0
1667,255.0,-957.0,195.0,-68.0,77.0,-89.0
1668,261.0,-944.0,205.0,-47.0,72.0,-74.0
1669,258.0,-943.0,206.0,-41.0,70.0,-53.0
1670,262.0,-940.0,207.0,-39.0,70.0,-37.0
1671,265.0,-938.0,210.0,-39.0,71.0,-24.0
1672,232.0,-950.0,219.0,-52.0,90.0,-17.0
1673,246.0,-964.0,207.0,-72.0,87.0,-31.0
1674,252.0,-955.0,208.0,-76.0,89.0,-39.0
1675,234.0,-957.0,207.0,-86.0,99.0,-41.0
1676,-103.0,-681.0,283.0,344.0,-222.0,101.0
1677,-293.0,-1085.0,323.0,-145.0,-306.0,459.0
1678,-257.0,-1063.0,322.0,-74.0,-606.0,550.0
1679,-207.0,-902.0,324.0,89.0,-915.0,624.0
1680,-120.0,-902.0,264.0,-15.0,-1166.0,668.0
1681,-6.0,-927.0,129.0,-111.0,-1389.0,726.0
1682,51.0,-839.0,-3.0,-61.0,-1500.0,776.0
1683,64.0,-731.0,-184.0,-53.0,-1490.0,775.0
1684,166.0,-561.0,-413.0,-64.0,-1474.0,758.0
1685,175.0,-387.0,-552.0,-137.0,-1338.0,775.0
1686,193.0,-364.0,-716.0,-420.0,-1161.0,811.0
1687,528.0,-675.0,-751.0,-798.0,-1014.0,628.0
1688,243.0,-1002.0,137.0,-567.0,555.0,183.0
1689,182.0,-1025.0,113.0,-486.0,578.0,177.0
1690,144.0,-1035.0,111.0,-400.0,518.0,152.0
1691,131.0,-1036.0,112.0,-318.0,431.0,106.0
1692,162.0,-1067.0,68.0,-246.0,348.0,46.0
1693,144.0,-1121.0,20.0,-127.0,311.0,-21.0
1694,138.0,-1106.0,29.0,88.0,272.0,-118.0
1695,148.0,-961.0,175.0,318.0,197.0,-202.0
1696,246.0,-1029.0,109.0,505.0,220.0,-206.0
1697,230.0,-950.0,210.0,5.0,58.0,-113.0
1698,219.0,-951.0,211.0,-74.0,60.0,-15.0
1699,221.0,-967.0,192.0,-81.0,58.0,-26.0
1700,228.0,-981.0,177.0,-61.0,63.0,-41.0
1701,250.0,-951.0,198.0,-7.0,66.0,-43.0
1702,266.0,-957.0,190.0,11.0,72.0,-15.0
1703,269.0,-960.0,191.0,38.0,82.0,31.0
1704,256.0,-954.0,200.0,72.0,87.0,82.0
1705,250.0,-949.0,204.0,88.0,85.0,123.0
1706,230.0,-948.0,210.0,100.0,91.0,149.0
1707,220.0,-930.0,230.0,109.0,89.0,157.0
1708,208.0,-934.0,231.0,86.0,86.0,154.0
1709,214.0,-956.0,221.0,44.0,73.0,135.0
1710,182.0,-943.0,245.0,38.0,123.0,126.0
1711,172.0,-950.0,239.0,19.0,131.0,119.0
1712,175.0,-969.0,221.0,6.0,136.0,107.0
1713,181.0,-964.0,222.0,21.0,140.0,100.0
1714,188.0,-962.0,223.0,36.0,143.0,101.0
1715,172.0,-954.0,240.0,51.0,156.0,104.0
1716,201.0,-967.0,217.0,41.0,162.0,96.0
1717,165.0,-951.0,241.0,66.0,179.0,100.0
1718,181.0,-954.0,233.0,63.0,172.0,101.0
1719,162.0,-938.0,251.0,71.0,185.0,101.0
1720,148.0,-937.0,255.0,55.0,188.0,94.0
1721,144.0,-959.0,244.0,42.0,233.0,9.0
1722,129.0,-961.0,243.0,52.0,233.0,5.0
1723,130.0,-950.0,251.0,67.0,217.0,-6.0
1724,133.0,-955.0,251.0,68.0,208.0,-18.0
1725,115.0,-948.0,256.0,73.0,203.0,-30.0
1726,104.0,-937.0,267.0,74.0,189.0,-48.0
1727,102.0,-944.0,272.0,61.0,168.0,-69.0
1728,115.0,-944.0,269.0,51.0,142.0,-90.0
1729,128.0,-944.0,270.0,40.0,128.0,-107.0
1730,159.0,-957.0,259.0,-19.0,93.0,-66.0
1731,136.0,-951.0,260.0,22.0,74.0,-74.0
1732,153.0,-945.0,263.0,27.0,61.0,-92.0
1733,165.0,-944.0,267.0,25.0,54.0,-101.0
1734,179.0,-944.0,265.0,18.0,50.0,-99.0
1735,180.0,-946.0,262.0,11.0,54.0,-90.0
1736,181.0,-947.0,264.0,6.0,56.0,-78.0
1737,180.0,-952.0,258.0,0.0,60.0,-68.0
1738,178.0,-946.0,260.0,1.0,62.0,-58.0
1739,177.0,-944.0,261.0,1.0,64.0,-51.0
1740,178.0,-941.0,265.0,1.0,66.0,-44.0
1741,165.0,-950.0,258.0,-3.0,71.0,-39.0
1742,179.0,-948.0,264.0,-1.0,60.0,-54.0
1743,176.0,-934.0,268.0,-1.0,56.0,-48.0
1744,174.0,-940.0,266.0,-6.0,56.0,-51.0
1745,180.0,-944.0,265.0,-11.0,53.0,-56.0
1746,182.0,-952.0,260.0,-14.0,53.0,-59.0
1747,190.0,-948.0,259.0,-11.0,52.0,-59.0
1748,187.0,-946.0,264.0,-10.0,56.0,-56.0
1749,192.0,-953.0,257.0,-11.0,57.0,-52.0
1750,183.0,-956.0,253.0,-3.0,64.0,-51.0
1751,186.0,-956.0,266.0,13.0,63.0,-53.0
1752,188.0,-989.0,243.0,10.0,72.0,-61.0
1753,181.0,-950.0,262.0,44.0,73.0,-66.0
1754,153.0,-941.0,267.0,50.0,72.0,-69.0
1755,171.0,-924.0,278.0,55.0,56.0,-92.0
1756,174.0,-938.0,271.0,40.0,52.0,-106.0
1757,178.0,-951.0,256.0,34.0,48.0,-114.0
1758,199.0,-940.0,264.0,37.0,40.0,-120.0
1759,198.0,-944.0,262.0,-13.0,80.0,-20.0
1760,206.0,-948.0,260.0,-13.0,77.0,-19.0
1761,206.0,-950.0,259.0,-16.0,80.0,-15.0
1762,196.0,-946.0,262.0,-18.0,84.0,-11.0
1763,197.0,-940.0,263.0,-21.0,82.0,-11.0
1764,202.0,-942.0,260.0,-28.0,79.0,-12.0
1765,214.0,-951.0,258.0,-34.0,78.0,-9.0
1766,214.0,-952.0,253.0,-38.0,82.0,0.0
1767,208.0,-934.0,262.0,-38.0,87.0,8.0
1768,197.0,-928.0,266.0,-47.0,96.0,12.0
1769,210.0,-919.0,273.0,3.0,-5.0,-128.0
1770,228.0,-934.0,257.0,9.0,68.0,20.0
1771,217.0,-919.0,277.0,11.0,75.0,22.0
1772,202.0,-923.0,276.0,-9.0,79.0,15.0
1773,203.0,-932.0,268.0,-31.0,74.0,-2.0
1774,214.0,-935.0,262.0,-37.0,66.0,-15.0
1775,220.0,-925.0,268.0,-36.0,62.0,-19.0
1776,225.0,-939.0,256.0,-51.0,61.0,-20.0
1777,229.0,-928.0,263.0,-45.0,60.0,-18.0
1778,235.0,-936.0,256.0,-53.0,62.0,-15.0
1779,224.0,-936.0,261.0,-49.0,72.0,-12.0
1780,222.0,-948.0,251.0,-49.0,80.0,-15.0
1781,221.0,-941.0,259.0,73.0,94.0,-36.0
1782,226.0,-922.0,272.0,78.0,94.0,-34.0
1783,229.0,-925.0,272.0,60.0,92.0,-26.0
1784,223.0,-929.0,270.0,47.0,97.0,-17.0
1785,224.0,-942.0,266.0,33.0,103.0,-21.0
1786,209.0,-962.0,260.0,34.0,107.0,-24.0
1787,224.0,-964.0,253.0,49.0,106.0,-40.0
1788,218.0,-957.0,262.0,76.0,113.0,-51.0
1789,226.0,-951.0,270.0,86.0,116.0,-62.0
1790,201.0,-1014.0,262.0,85.0,128.0,-73.0
1791,210.0,-1017.0,239.0,122.0,133.0,-114.0
1792,240.0,-976.0,266.0,190.0,126.0,-139.0
1793,270.0,-973.0,280.0,190.0,128.0,-126.0
1794,186.0,-1057.0,330.0,735.0,143.0,-31.0
1795,201.0,-1097.0,390.0,1387.0,169.0,-368.0
1796,274.0,-1068.0,384.0,1439.0,131.0,-368.0
1797,351.0,-1097.0,370.0,1448.0,145.0,-380.0
1798,388.0,-1113.0,377.0,1494.0,204.0,-394.0
1799,443.0,-1152.0,382.0,1529.0,257.0,-436.0
1800,474.0,-1220.0,375.0,1561.0,341.0,-479.0
1801,541.0,-1252.0,361.0,1645.0,405.0,-528.0
1802,580.0,-1270.0,364.0,1733.0,506.0,-577.0
1803,602.0,-1292.0,383.0,1804.0,636.0,-636.0
1804,598.0,-1310.0,439.0,1891.0,780.0,-675.0
1805,604.0,282.0,-803.0,90.0,242.0,119.0
1806,-98.0,-672.0,-564.0,-3511.0,-443.0,548.0
1807,9.0,-637.0,-499.0,-3286.0,-627.0,537.0
1808,144.0,-553.0,-431.0,-3216.0,-727.0,426.0
1809,252.0,-581.0,-397.0,-3389.0,-715.0,344.0
1810,376.0,-647.0,-371.0,-3579.0,-684.0,302.0
1811,481.0,-745.0,-299.0,-3734.0,-597.0,263.0
1812,466.0,-919.0,-225.0,-3912.0,-399.0,196.0
1813,353.0,-1095.0,-122.0,-4006.0,-214.0,98.0
1814,188.0,-1281.0,-7.0,-4061.0,-131.0,34.0
1815,73.0,-1472.0,85.0,-4075.0,-208.0,36.0
1816,-8.0,-1600.0,170.0,-3992.0,-375.0,57.0
1817,8.0,-1644.0,218.0,-3845.0,-631.0,46.0
1818,85.0,-1651.0,253.0,-3702.0,-900.0,-13.0
1819,161.0,-1682.0,277.0,-3603.0,-1123.0,-89.0
1820,268.0,-1690.0,287.0,-3487.0,-1314.0,-129.0
1821,464.0,-1361.0,658.0,-2001.0,117.0,-123.0
1822,288.0,-1334.0,746.0,-1838.0,352.0,-144.0
1823,198.0,-1289.0,776.0,-1658.0,507.0,-104.0
1824,217.0,-1254.0,786.0,-1476.0,616.0,-43.0
1825,233.0,-1211.0,783.0,-1265.0,755.0,5.0
1826,225.0,-1138.0,764.0,-1020.0,886.0,20.0
1827,91.0,-1103.0,707.0,-806.0,1003.0,1.0
1828,-153.0,-1088.0,634.0,-604.0,1026.0,-17.0
1829,-333.0,-1071.0,567.0,-397.0,840.0,-3.0
1830,-325.0,-1080.0,478.0,-208.0,477.0,31.0
1831,-232.0,-1035.0,410.0,7.0,115.0,34.0
1832,335.0,-992.0,157.0,1123.0,-317.0,-62.0
1833,267.0,-992.0,20.0,779.0,126.0,-88.0
1834,236.0,-987.0,60.0,805.0,150.0,-65.0
1835,244.0,-958.0,92.0,825.0,141.0,-53.0
1836,244.0,-931.0,132.0,794.0,176.0,-54.0
1837,206.0,-919.0,158.0,732.0,243.0,-67.0
1838,186.0,-956.0,146.0,639.0,280.0,-113.0
1839,223.0,-933.0,167.0,613.0,241.0,-151.0
1840,216.0,-911.0,195.0,573.0,219.0,-142.0
1841,198.0,-899.0,205.0,497.0,207.0,-147.0
1842,338.0,-961.0,127.0,126.0,89.0,19.0
1843,185.0,-978.0,204.0,125.0,80.0,148.0
1844,227.0,-962.0,212.0,133.0,69.0,94.0
1845,233.0,-988.0,197.0,115.0,95.0,60.0
1846,236.0,-950.0,222.0,141.0,113.0,34.0
1847,198.0,-957.0,214.0,120.0,160.0,10.0
1848,198.0,-944.0,210.0,116.0,164.0,-15.0
1849,218.0,-934.0,209.0,120.0,153.0,-21.0
1850,226.0,-924.0,224.0,120.0,143.0,-9.0
1851,233.0,-913.0,225.0,112.0,142.0,10.0
1852,199.0,-925.0,231.0,88.0,157.0,27.0
1853,205.0,-956.0,218.0,66.0,153.0,21.0
1854,191.0,-922.0,248.0,106.0,88.0,124.0
1855,251.0,-1044.0,207.0,-34.0,138.0,-34.0
1856,253.0,-1034.0,226.0,54.0,157.0,-12.0
1857,240.0,-1043.0,231.0,85.0,190.0,7.0
1858,202.0,-1003.0,266.0,141.0,220.0,6.0
1859,187.0,-1020.0,267.0,142.0,241.0,-21.0
1860,154.0,-1036.0,271.0,165.0,258.0,-62.0
1861,130.0,-1066.0,271.0,191.0,243.0,-113.0
1862,203.0,-1060.0,258.0,239.0,180.0,-160.0
1863,223.0,-1068.0,260.0,280.0,151.0,-172.0
1864,214.0,-1059.0,258.0,357.0,146.0,-173.0
1865,231.0,-1046.0,278.0,447.0,124.0,-172.0
1866,158.0,-1099.0,360.0,979.0,206.0,-185.0
1867,118.0,-1094.0,366.0,1024.0,198.0,-190.0
1868,146.0,-1040.0,383.0,1090.0,143.0,-205.0
1869,180.0,-1012.0,378.0,1107.0,113.0,-216.0
1870,217.0,-986.0,378.0,1119.0,101.0,-225.0
1871,259.0,-980.0,374.0,1125.0,105.0,-251.0
1872,236.0,-943.0,402.0,1148.0,129.0,-297.0
1873,298.0,-1002.0,373.0,1119.0,134.0,-327.0
1874,332.0,-961.0,386.0,1165.0,171.0,-329.0
1875,355.0,-948.0,381.0,1178.0,207.0,-362.0
1876,366.0,-940.0,412.0,1193.0,250.0,-372.0
1877,-101.0,-957.0,654.0,1674.0,777.0,-701.0
1878,66.0,-947.0,701.0,1761.0,458.0,-660.0
1879,161.0,-925.0,818.0,1822.0,351.0,-608.0
1880,397.0,-898.0,862.0,1852.0,168.0,-511.0
1881,593.0,-846.0,850.0,1887.0,135.0,-472.0
1882,639.0,-748.0,873.0,1881.0,312.0,-511.0
1883,261.0,-498.0,-368.0,-2877.0,-316.0,956.0
1884,262.0,-704.0,-388.0,-3028.0,-194.0,906.0
1885,157.0,-636.0,-355.0,-2773.0,-87.0,904.0
1886,107.0,-439.0,-304.0,-2600.0,-130.0,875.0
1887,153.0,-342.0,-320.0,-2821.0,-235.0,845.0
1888,217.0,-416.0,-346.0,-3243.0,-292.0,821.0
1889,280.0,-650.0,-365.0,-3669.0,-317.0,809.0
1890,327.0,-884.0,-315.0,-3839.0,-326.0,765.0
1891,283.0,-1047.0,-201.0,-3790.0,-288.0,689.0
1892,192.0,-1064.0,-78.0,-3637.0,-302.0,611.0
1893,200.0,-1057.0,-6.0,-3586.0,-471.0,555.0
1894,392.0,-1576.0,454.0,-2872.0,-763.0,-212.0
1895,78.0,-1306.0,922.0,-1329.0,-371.0,-88.0
1896,170.0,-1240.0,919.0,-1103.0,-336.0,-78.0
1897,216.0,-1146.0,912.0,-902.0,-197.0,-53.0
1898,259.0,-1154.0,907.0,-778.0,-7.0,-41.0
1899,248.0,-1147.0,889.0,-597.0,222.0,-27.0
1900,164.0,-1088.0,832.0,-377.0,446.0,-5.0
1901,47.0,-1040.0,741.0,-189.0,581.0,26.0
1902,-43.0,-1004.0,640.0,-32.0,595.0,66.0
1903,-47.0,-1006.0,529.0,93.0,497.0,126.0
1904,-46.0,-1007.0,452.0,235.0,380.0,168.0
1905,-81.0,-1012.0,393.0,375.0,269.0,182.0
1906,86.0,-1087.0,-127.0,1272.0,321.0,-335.0
1907,53.0,-1009.0,-29.0,1327.0,269.0,-474.0
1908,107.0,-882.0,143.0,1364.0,161.0,-627.0
1909,261.0,-828.0,206.0,1209.0,25.0,-713.0
1910,251.0,-889.0,138.0,952.0,68.0,-699.0
1911,325.0,-887.0,122.0,843.0,43.0,-686.0
1912,352.0,-858.0,126.0,747.0,56.0,-634.0
1913,343.0,-878.0,124.0,616.0,93.0,-545.0
1914,380.0,-868.0,138.0,527.0,89.0,-462.0
1915,312.0,-927.0,122.0,188.0,128.0,-31.0
1916,315.0,-917.0,126.0,177.0,132.0,-25.0
1917,253.0,-909.0,177.0,156.0,148.0,-32.0
1918,282.0,-943.0,134.0,60.0,121.0,-79.0
1919,287.0,-960.0,116.0,30.0,130.0,-111.0
1920,282.0,-945.0,127.0,44.0,133.0,-128.0
1921,304.0,-945.0,118.0,36.0,115.0,-140.0
1922,309.0,-929.0,142.0,94.0,86.0,75.0
1923,306.0,-942.0,128.0,92.0,92.0,90.0
1924,294.0,-936.0,146.0,111.0,98.0,97.0
1925,311.0,-950.0,124.0,105.0,90.0,100.0
1926,304.0,-936.0,149.0,130.0,97.0,113.0
1927,269.0,-918.0,185.0,141.0,102.0,122.0
1928,274.0,-934.0,169.0,97.0,87.0,111.0
1929,279.0,-939.0,154.0,87.0,74.0,104.0
1930,277.0,-952.0,144.0,77.0,76.0,89.0
1931,285.0,-963.0,129.0,76.0,76.0,69.0
1932,283.0,-970.0,138.0,92.0,89.0,49.0
1933,284.0,-960.0,153.0,112.0,94.0,28.0
1934,288.0,-952.0,148.0,118.0,98.0,15.0
1935,281.0,-955.0,141.0,127.0,111.0,7.0
1936,280.0,-929.0,170.0,165.0,111.0,6.0
1937,265.0,-922.0,192.0,210.0,147.0,104.0
1938,253.0,-990.0,204.0,206.0,93.0,50.0
1939,262.0,-975.0,219.0,231.0,105.0,45.0
1940,273.0,-985.0,226.0,235.0,118.0,50.0
1941,285.0,-995.0,219.0,242.0,142.0,57.0
1942,274.0,-997.0,226.0,263.0,178.0,69.0
1943,229.0,-1014.0,234.0,274.0,222.0,66.0
1944,216.0,-1018.0,240.0,291.0,220.0,43.0
1945,223.0,-1024.0,244.0,306.0,196.0,20.0
1946,215.0,-1059.0,233.0,323.0,198.0,0.0
1947,218.0,-1058.0,260.0,381.0,180.0,-20.0
1948,237.0,-1055.0,264.0,435.0,159.0,-30.0
1949,121.0,-1135.0,388.0,1023.0,258.0,-150.0
1950,452.0,-1003.0,404.0,1381.0,502.0,-544.0
1951,499.0,-1051.0,414.0,1407.0,559.0,-585.0
1952,559.0,-1082.0,406.0,1455.0,632.0,-643.0
1953,557.0,-1142.0,371.0,1483.0,771.0,-702.0
1954,373.0,-1147.0,367.0,1554.0,1012.0,-756.0
1955,223.0,-1122.0,402.0,1658.0,1118.0,-695.0
1956,264.0,-1139.0,454.0,1734.0,1008.0,-558.0
1957,261.0,-1112.0,412.0,1845.0,1002.0,-527.0
1958,102.0,240.0,-124.0,730.0,173.0,76.0
1959,-33.0,294.0,-279.0,-191.0,341.0,286.0
1960,-471.0,9.0,-281.0,-1278.0,585.0,413.0
1961,-174.0,-495.0,-322.0,-2014.0,-193.0,503.0
1962,144.0,-643.0,-351.0,-1967.0,-492.0,491.0
1963,-35.0,-473.0,-252.0,-1653.0,-201.0,464.0
1964,-154.0,-297.0,-223.0,-1608.0,-223.0,403.0
1965,-112.0,-210.0,-223.0,-1829.0,-412.0,315.0
1966,-66.0,-248.0,-237.0,-2191.0,-506.0,367.0
1967,-24.0,-362.0,-284.0,-2523.0,-567.0,500.0
1968,62.0,-423.0,-307.0,-2694.0,-656.0,573.0
1969,745.0,-1600.0,484.0,-3067.0,-1244.0,410.0
1970,709.0,-1647.0,535.0,-2958.0,-1040.0,380.0
1971,730.0,-1640.0,585.0,-2809.0,-902.0,387.0
1972,756.0,-1645.0,614.0,-2689.0,-762.0,419.0
1973,724.0,-1615.0,645.0,-2561.0,-589.0,395.0
1974,720.0,-1535.0,651.0,-2429.0,-473.0,339.0
1975,692.0,-1480.0,636.0,-2340.0,-352.0,299.0
1976,681.0,-1475.0,597.0,-2252.0,-245.0,277.0
1977,206.0,-1229.0,398.0,-1563.0,148.0,-124.0
1978,129.0,-1197.0,367.0,-1449.0,96.0,-132.0
1979,106.0,-1116.0,365.0,-1336.0,8.0,-140.0
1980,88.0,-1067.0,352.0,-1314.0,-55.0,-144.0
1981,149.0,-1103.0,264.0,-1314.0,-60.0,-97.0
1982,137.0,-1081.0,262.0,-1229.0,-39.0,-100.0
1983,84.0,-1038.0,297.0,-1148.0,-32.0,-111.0
1984,-19.0,-1051.0,339.0,-1122.0,-45.0,-119.0
1985,-47.0,-1084.0,318.0,-1068.0,-137.0,-82.0
1986,17.0,-1069.0,297.0,-942.0,-262.0,-12.0
1987,53.0,-1041.0,304.0,-809.0,-342.0,-3.0
1988,77.0,-1035.0,327.0,-693.0,-401.0,-75.0
1989,191.0,-1045.0,40.0,817.0,-752.0,-115.0
1990,156.0,-951.0,54.0,1007.0,-697.0,-154.0
1991,65.0,-776.0,76.0,1082.0,-644.0,-151.0
1992,116.0,-1088.0,160.0,920.0,-635.0,-121.0
1993,249.0,-1386.0,-29.0,1102.0,-524.0,-155.0
1994,464.0,-686.0,292.0,1906.0,-107.0,-218.0
1995,279.0,-1022.0,165.0,1374.0,293.0,-148.0
1996,242.0,-1141.0,31.0,1337.0,282.0,-136.0
1997,353.0,-1450.0,-389.0,1138.0,249.0,-127.0
1998,519.0,-1886.0,-1115.0,895.0,294.0,-88.0
1999,118.0,-1909.0,-1213.0,1533.0,631.0,13.0
2000,-74.0,-1377.0,-445.0,2715.0,372.0,-76.0
2001,53.0,-803.0,540.0,3038.0,-143.0,-283.0
2002,132.0,-595.0,716.0,2214.0,-147.0,-382.0
2003,206.0,-964.0,190.0,287.0,202.0,-263.0
2004,215.0,-970.0,170.0,266.0,168.0,-254.0
2005,218.0,-960.0,185.0,271.0,140.0,-237.0
2006,216.0,-969.0,192.0,256.0,125.0,-220.0
2007,268.0,-934.0,177.0,271.0,109.0,-105.0
2008,287.0,-918.0,188.0,264.0,93.0,-39.0
2009,247.0,-930.0,187.0,242.0,116.0,27.0
2010,240.0,-947.0,185.0,225.0,124.0,63.0
2011,240.0,-922.0,202.0,241.0,122.0,92.0
2012,211.0,-926.0,200.0,215.0,135.0,121.0
2013,210.0,-927.0,202.0,198.0,136.0,132.0
2014,221.0,-934.0,211.0,187.0,128.0,146.0
2015,225.0,-943.0,206.0,170.0,121.0,167.0
2016,223.0,-1002.0,231.0,161.0,101.0,-129.0
2017,219.0,-1007.0,226.0,172.0,107.0,-121.0
2018,208.0,-1008.0,227.0,201.0,126.0,-128.0
2019,211.0,-1006.0,228.0,224.0,130.0,-139.0
2020,162.0,-1022.0,254.0,250.0,135.0,-170.0
2021,184.0,-1027.0,234.0,272.0,110.0,-202.0
2022,228.0,-1015.0,247.0,321.0,77.0,-218.0
2023,259.0,-1018.0,252.0,350.0,61.0,-216.0
2024,289.0,-1023.0,256.0,388.0,76.0,-214.0
2025,279.0,-1019.0,262.0,438.0,118.0,-224.0
2026,253.0,-1024.0,274.0,473.0,153.0,-248.0
2027,278.0,-960.0,283.0,644.0,116.0,-276.0
2028,260.0,-714.0,471.0,600.0,112.0,-189.0
2029,262.0,-728.0,472.0,555.0,122.0,-185.0
2030,283.0,-735.0,471.0,519.0,124.0,-181.0
2031,307.0,-746.0,482.0,484.0,132.0,-175.0
2032,335.0,-745.0,482.0,455.0,145.0,-172.0
2033,360.0,-768.0,482.0,418.0,167.0,-168.0
2034,366.0,-767.0,485.0,396.0,199.0,-172.0
2035,344.0,-774.0,491.0,374.0,239.0,-180.0
2036,319.0,-800.0,510.0,349.0,270.0,-194.0
2037,294.0,-819.0,518.0,336.0,291.0,-203.0
2038,264.0,-858.0,522.0,326.0,308.0,-216.0
2039,305.0,-1062.0,496.0,1074.0,642.0,-535.0
2040,357.0,-812.0,579.0,1258.0,372.0,-325.0
2041,344.0,-805.0,629.0,1332.0,433.0,-356.0
2042,290.0,-746.0,722.0,1419.0,478.0,-384.0
2043,243.0,-749.0,850.0,1439.0,456.0,-388.0
2044,306.0,-828.0,972.0,1452.0,323.0,-378.0
2045,396.0,-821.0,1021.0,1569.0,211.0,-360.0
2046,504.0,-790.0,980.0,1677.0,129.0,-354.0
2047,607.0,-788.0,897.0,1719.0,124.0,-376.0
2048,683.0,-828.0,835.0,1719.0,187.0,-391.0
2049,727.0,-876.0,762.0,1738.0,291.0,-396.0
2050,705.0,-872.0,702.0,1807.0,411.0,-439.0
2051,287.0,-142.0,-145.0,-702.0,71.0,687.0
2052,-41.0,-1078.0,59.0,-3818.0,687.0,572.0
2053,-41.0,-1121.0,86.0,-3787.0,533.0,543.0
2054,-42.0,-1126.0,127.0,-3756.0,368.0,514.0
2055,14.0,-1158.0,179.0,-3778.0,182.0,461.0
2056,102.0,-1292.0,203.0,-3853.0,24.0,400.0
2057,151.0,-1400.0,257.0,-3808.0,-61.0,330.0
2058,193.0,-1451.0,316.0,-3682.0,-122.0,265.0
2059,208.0,-1443.0,375.0,-3562.0,-160.0,199.0
2060,178.0,-1471.0,431.0,-3511.0,-180.0,149.0
2061,186.0,-1520.0,459.0,-3464.0,-236.0,129.0
2062,168.0,-1564.0,509.0,-3364.0,-297.0,129.0
2063,237.0,-1320.0,445.0,-2178.0,-513.0,105.0
2064,230.0,-1122.0,662.0,-554.0,-112.0,-3.0
2065,246.0,-1077.0,582.0,-399.0,-47.0,-25.0
2066,229.0,-1099.0,496.0,-279.0,-2.0,-31.0
2067,155.0,-1042.0,384.0,-107.0,37.0,-43.0
2068,52.0,-933.0,289.0,38.0,8.0,-73.0
2069,31.0,-971.0,184.0,49.0,-101.0,-85.0
2070,0.0,-1013.0,153.0,122.0,-199.0,-63.0
2071,63.0,-1027.0,136.0,248.0,-327.0,-48.0
2072,174.0,-1279.0,147.0,386.0,-419.0,-87.0
2073,164.0,-1131.0,79.0,897.0,-422.0,-191.0
2074,208.0,-849.0,218.0,1406.0,-454.0,-287.0
2075,220.0,-914.0,-118.0,1327.0,-215.0,-390.0
2076,223.0,-947.0,-128.0,1266.0,-162.0,-373.0
2077,227.0,-939.0,-66.0,1307.0,-103.0,-360.0
2078,222.0,-910.0,11.0,1329.0,-31.0,-352.0
2079,283.0,-905.0,-6.0,1264.0,19.0,-352.0
2080,276.0,-957.0,-41.0,1185.0,119.0,-317.0
2081,223.0,-984.0,-28.0,1188.0,185.0,-273.0
2082,224.0,-958.0,-8.0,1213.0,178.0,-253.0
2083,244.0,-967.0,23.0,1192.0,159.0,-222.0
2084,255.0,-971.0,105.0,1079.0,285.0,79.0
2085,216.0,-984.0,90.0,1019.0,345.0,95.0
2086,180.0,-993.0,123.0,1007.0,354.0,94.0
2087,120.0,-944.0,207.0,1013.0,311.0,98.0
2088,250.0,-940.0,177.0,888.0,180.0,93.0
2089,178.0,-887.0,236.0,832.0,178.0,137.0
2090,228.0,-902.0,243.0,714.0,125.0,166.0
2091,175.0,-910.0,255.0,595.0,116.0,191.0
2092,161.0,-923.0,244.0,493.0,105.0,180.0
2093,189.0,-966.0,223.0,279.0,89.0,-63.0
2094,211.0,-948.0,247.0,-26.0,114.0,-155.0
2095,221.0,-975.0,240.0,-40.0,120.0,-153.0
2096,237.0,-979.0,227.0,-37.0,129.0,-149.0
2097,217.0,-956.0,234.0,-21.0,147.0,-136.0
2098,205.0,-935.0,247.0,-20.0,150.0,-129.0
2099,201.0,-932.0,241.0,-35.0,152.0,-130.0
2100,210.0,-938.0,238.0,-44.0,144.0,-124.0
2101,231.0,-941.0,229.0,-48.0,135.0,-107.0
2102,207.0,-939.0,231.0,-13.0,88.0,-45.0
2103,219.0,-923.0,241.0,-4.0,77.0,-37.0
2104,238.0,-931.0,232.0,-14.0,74.0,-20.0
2105,237.0,-938.0,233.0,-16.0,82.0,5.0
2106,221.0,-941.0,233.0,-14.0,93.0,27.0
2107,212.0,-940.0,231.0,-12.0,98.0,37.0
2108,207.0,-935.0,236.0,-6.0,100.0,41.0
2109,199.0,-946.0,239.0,-11.0,100.0,40.0
2110,216.0,-960.0,230.0,-17.0,91.0,36.0
2111,224.0,-960.0,230.0,-10.0,88.0,41.0
2112,214.0,-951.0,234.0,-6.0,93.0,51.0
2113,208.0,-958.0,230.0,22.0,126.0,-60.0
2114,205.0,-902.0,242.0,76.0,157.0,-11.0
2115,179.0,-893.0,245.0,57.0,167.0,-14.0
2116,164.0,-873.0,249.0,44.0,165.0,-12.0
2117,163.0,-859.0,247.0,25.0,156.0,-7.0
2118,168.0,-852.0,247.0,4.0,147.0,7.0
2119,172.0,-849.0,245.0,-16.0,144.0,23.0
2120,167.0,-860.0,245.0,-34.0,145.0,45.0
2121,161.0,-870.0,246.0,-44.0,142.0,63.0
2122,164.0,-881.0,246.0,-51.0,133.0,68.0
2123,171.0,-891.0,247.0,-56.0,125.0,68.0
2124,169.0,-906.0,248.0,-62.0,123.0,67.0
2125,179.0,-951.0,228.0,-113.0,120.0,-17.0
2126,175.0,-976.0,211.0,-107.0,110.0,-34.0
2127,175.0,-984.0,209.0,-100.0,108.0,-37.0
2128,178.0,-986.0,207.0,-89.0,106.0,-38.0
2129,182.0,-982.0,209.0,-74.0,104.0,-36.0
2130,185.0,-985.0,205.0,-68.0,102.0,-30.0
2131,189.0,-985.0,203.0,-56.0,98.0,-23.0
2132,189.0,-981.0,203.0,-40.0,96.0,-14.0
2133,188.0,-975.0,204.0,-27.0,96.0,-4.0
2134,181.0,-969.0,205.0,-19.0,99.0,3.0
2135,174.0,-962.0,207.0,-11.0,101.0,7.0
2136,169.0,-960.0,209.0,-6.0,100.0,6.0
2137,167.0,-963.0,211.0,-4.0,109.0,23.0
2138,159.0,-960.0,214.0,9.0,91.0,11.0
2139,163.0,-964.0,212.0,9.0,88.0,8.0
2140,163.0,-962.0,213.0,10.0,88.0,8.0
2141,160.0,-960.0,214.0,8.0,88.0,7.0
2142,159.0,-959.0,214.0,7.0,88.0,6.0
2143,162.0,-957.0,214.0,7.0,87.0,4.0
2144,163.0,-958.0,215.0,8.0,87.0,5.0
2145,161.0,-957.0,215.0,9.0,88.0,7.0
2146,157.0,-958.0,215.0,9.0,88.0,6.0
2147,160.0,-957.0,216.0,9.0,85.0,6.0
2148,157.0,-959.0,217.0,8.0,85.0,6.0
2149,162.0,-964.0,215.0,-8.0,83.0,-6.0
2150,163.0,-955.0,216.0,-8.0,85.0,-5.0
2151,155.0,-954.0,218.0,-12.0,90.0,-5.0
2152,151.0,-952.0,217.0,-14.0,91.0,-6.0
2153,149.0,-950.0,219.0,-15.0,91.0,-9.0
2154,153.0,-953.0,218.0,-16.0,87.0,-11.0
2155,153.0,-958.0,216.0,-18.0,85.0,-12.0
2156,155.0,-963.0,215.0,-19.0,84.0,-13.0
2157,159.0,-963.0,216.0,-21.0,83.0,-13.0
2158,159.0,-964.0,215.0,-23.0,86.0,-13.0
2159,157.0,-961.0,214.0,-24.0,89.0,-14.0
2160,156.0,-952.0,215.0,-15.0,77.0,-33.0