sequence,AccelerometerX,AccelerometerY,AccelerometerZ,GyroscopeX,GyroscopeY,GyroscopeZ
59,96.0,-993.0,228.0,30.0,32.0,-34.0
60,118.0,-1003.0,223.0,53.0,39.0,-48.0
61,128.0,-1011.0,223.0,81.0,48.0,-58.0
62,141.0,-1019.0,218.0,111.0,43.0,-58.0
63,123.0,-1024.0,226.0,141.0,50.0,-62.0
64,142.0,-1031.0,260.0,184.0,51.0,-88.0
65,-124.0,-967.0,27.0,-185.0,1669.0,-226.0
66,-102.0,-953.0,6.0,-201.0,1621.0,-228.0
67,-59.0,-946.0,-24.0,-229.0,1569.0,-248.0
68,-9.0,-972.0,-61.0,-257.0,1533.0,-281.0
69,13.0,-967.0,-85.0,-268.0,1527.0,-319.0
70,0.0,-970.0,-85.0,-278.0,1547.0,-355.0
71,-34.0,-957.0,-78.0,-289.0,1568.0,-381.0
72,-95.0,-949.0,-53.0,-311.0,1580.0,-396.0
73,-164.0,-961.0,-19.0,-342.0,1554.0,-387.0
74,-224.0,-985.0,5.0,-368.0,1489.0,-355.0
75,-248.0,-963.0,32.0,-383.0,1378.0,-309.0
76,198.0,-985.0,306.0,-805.0,1216.0,-91.0
77,217.0,-986.0,309.0,-769.0,1250.0,-77.0
78,273.0,-954.0,297.0,-721.0,1274.0,-88.0
79,333.0,-940.0,281.0,-692.0,1319.0,-118.0
80,359.0,-941.0,269.0,-671.0,1390.0,-155.0
81,351.0,-948.0,267.0,-642.0,1465.0,-195.0
82,326.0,-951.0,272.0,-599.0,1532.0,-238.0
83,284.0,-953.0,286.0,-542.0,1581.0,-278.0
84,242.0,-944.0,300.0,-481.0,1609.0,-306.0
85,26.0,-942.0,181.0,92.0,844.0,-187.0
86,175.0,-1061.0,48.0,451.0,-173.0,-185.0
87,184.0,-1026.0,79.0,458.0,-185.0,-193.0
88,164.0,-1010.0,115.0,432.0,-152.0,-189.0
89,154.0,-1019.0,147.0,407.0,-133.0,-189.0
90,209.0,-1019.0,178.0,413.0,-125.0,-188.0
91,327.0,-981.0,193.0,440.0,-105.0,-172.0
92,310.0,-962.0,218.0,437.0,12.0,-126.0
93,246.0,-957.0,218.0,418.0,98.0,-52.0
94,214.0,-975.0,197.0,404.0,77.0,7.0
95,188.0,-985.0,187.0,409.0,30.0,51.0
96,214.0,-973.0,163.0,428.0,-54.0,84.0
97,182.0,-943.0,224.0,249.0,202.0,-154.0
98,157.0,-940.0,286.0,258.0,139.0,-160.0
99,193.0,-915.0,281.0,178.0,145.0,-162.0
100,187.0,-916.0,279.0,140.0,164.0,-158.0
101,196.0,-921.0,270.0,115.0,174.0,-154.0
102,198.0,-919.0,264.0,95.0,185.0,-147.0
103,175.0,-927.0,276.0,75.0,197.0,-142.0
104,188.0,-949.0,258.0,61.0,194.0,-148.0
105,189.0,-936.0,258.0,59.0,186.0,-149.0
106,171.0,-941.0,254.0,57.0,175.0,-146.0
107,217.0,-924.0,262.0,60.0,124.0,-143.0
108,233.0,-935.0,255.0,57.0,113.0,-113.0
109,243.0,-928.0,255.0,59.0,109.0,-80.0
110,194.0,-926.0,270.0,192.0,170.0,49.0
111,158.0,-875.0,321.0,189.0,137.0,124.0
112,164.0,-874.0,317.0,166.0,132.0,132.0
113,173.0,-862.0,327.0,149.0,132.0,143.0
114,157.0,-906.0,329.0,132.0,148.0,168.0
115,152.0,-997.0,308.0,125.0,161.0,152.0
116,146.0,-1001.0,310.0,160.0,159.0,119.0
117,137.0,-1011.0,312.0,193.0,143.0,92.0
118,154.0,-1064.0,283.0,227.0,148.0,46.0
119,157.0,-980.0,323.0,299.0,118.0,27.0
120,156.0,-902.0,353.0,320.0,101.0,25.0
121,160.0,-901.0,362.0,269.0,133.0,10.0
122,173.0,-906.0,353.0,204.0,127.0,26.0
123,87.0,-862.0,473.0,506.0,226.0,154.0
124,79.0,-860.0,477.0,487.0,223.0,168.0
125,57.0,-874.0,487.0,471.0,222.0,182.0
126,75.0,-918.0,490.0,464.0,203.0,201.0
127,88.0,-977.0,501.0,473.0,188.0,221.0
128,110.0,-1042.0,514.0,499.0,178.0,245.0
129,163.0,-1087.0,522.0,537.0,162.0,267.0
130,258.0,-1084.0,516.0,582.0,152.0,267.0
131,240.0,-1099.0,519.0,609.0,212.0,245.0
132,159.0,-1112.0,521.0,632.0,278.0,216.0
133,103.0,-1087.0,550.0,666.0,298.0,202.0
134,446.0,-988.0,517.0,796.0,998.0,-135.0
135,424.0,-1066.0,535.0,850.0,1091.0,-78.0
136,530.0,-1005.0,513.0,955.0,1089.0,-15.0
137,529.0,-950.0,491.0,1018.0,1178.0,-65.0
138,548.0,-961.0,476.0,1044.0,1253.0,-173.0
139,522.0,-949.0,467.0,1076.0,1331.0,-257.0
140,467.0,-907.0,432.0,1099.0,1406.0,-339.0
141,423.0,-873.0,384.0,1086.0,1439.0,-438.0
142,499.0,-865.0,333.0,1058.0,1444.0,-512.0
143,415.0,-755.0,359.0,1021.0,1609.0,-528.0
144,-115.0,-890.0,-397.0,-2028.0,-454.0,-632.0
145,-278.0,-971.0,-296.0,-2399.0,-634.0,-558.0
146,-239.0,-1029.0,-254.0,-2571.0,-767.0,-552.0
147,-190.0,-1057.0,-198.0,-2723.0,-841.0,-534.0
148,-247.0,-1104.0,-131.0,-2908.0,-821.0,-502.0
149,-268.0,-1203.0,-94.0,-3106.0,-808.0,-429.0
150,-232.0,-1296.0,-61.0,-3255.0,-804.0,-331.0
151,-152.0,-1313.0,-24.0,-3367.0,-781.0,-262.0
152,-89.0,-1405.0,30.0,-3503.0,-719.0,-225.0
153,-100.0,-1548.0,123.0,-3610.0,-635.0,-195.0
154,-47.0,-1095.0,995.0,-1793.0,386.0,-140.0
155,6.0,-944.0,402.0,213.0,133.0,74.0
156,29.0,-925.0,330.0,294.0,148.0,88.0
157,54.0,-855.0,273.0,359.0,153.0,90.0
158,69.0,-900.0,229.0,372.0,170.0,83.0
159,37.0,-934.0,221.0,394.0,181.0,92.0
160,208.0,-750.0,152.0,421.0,140.0,-4.0
161,209.0,-861.0,70.0,328.0,249.0,-174.0
162,178.0,-893.0,-50.0,268.0,305.0,-222.0
163,238.0,-1018.0,-288.0,195.0,310.0,-259.0
164,346.0,-1247.0,-596.0,165.0,298.0,-268.0
165,360.0,-1480.0,-857.0,261.0,310.0,-170.0
166,163.0,-980.0,56.0,727.0,34.0,-351.0
167,217.0,-938.0,171.0,218.0,147.0,102.0
168,137.0,-953.0,174.0,155.0,207.0,129.0
169,95.0,-968.0,171.0,116.0,193.0,121.0
170,98.0,-992.0,125.0,93.0,130.0,93.0
171,102.0,-1015.0,85.0,100.0,39.0,80.0
172,124.0,-1017.0,66.0,139.0,-59.0,69.0
173,134.0,-1003.0,86.0,188.0,-129.0,63.0
174,143.0,-1014.0,85.0,229.0,-168.0,55.0
175,146.0,-993.0,71.0,283.0,-186.0,44.0
176,131.0,-874.0,437.0,650.0,81.0,97.0
177,86.0,-911.0,337.0,229.0,120.0,-383.0
178,124.0,-917.0,316.0,208.0,107.0,-405.0
179,189.0,-876.0,298.0,200.0,71.0,-398.0
180,241.0,-834.0,307.0,194.0,39.0,-355.0
181,318.0,-837.0,263.0,186.0,31.0,-292.0
182,303.0,-826.0,296.0,185.0,63.0,-212.0
183,246.0,-859.0,311.0,172.0,102.0,-138.0
184,243.0,-885.0,303.0,160.0,113.0,-75.0
185,210.0,-887.0,316.0,150.0,130.0,-22.0
186,152.0,-887.0,352.0,133.0,146.0,16.0
187,173.0,-929.0,331.0,117.0,130.0,31.0
188,211.0,-881.0,338.0,-115.0,57.0,20.0
189,194.0,-998.0,276.0,-89.0,168.0,-19.0
190,182.0,-944.0,326.0,-58.0,147.0,11.0
191,169.0,-945.0,341.0,-57.0,146.0,23.0
192,166.0,-973.0,320.0,-59.0,146.0,24.0
193,183.0,-966.0,298.0,-50.0,158.0,21.0
194,140.0,-965.0,296.0,-37.0,188.0,23.0
195,105.0,-970.0,304.0,-18.0,193.0,2.0
196,139.0,-959.0,314.0,5.0,178.0,-40.0
197,119.0,-969.0,306.0,26.0,211.0,-76.0
198,125.0,-978.0,302.0,52.0,225.0,-112.0
199,156.0,-968.0,302.0,77.0,211.0,-139.0
200,163.0,-983.0,335.0,312.0,203.0,-25.0
201,98.0,-1001.0,424.0,426.0,298.0,215.0
202,102.0,-1083.0,441.0,448.0,269.0,190.0
203,127.0,-1131.0,451.0,501.0,225.0,163.0
204,99.0,-1182.0,474.0,579.0,179.0,140.0
205,145.0,-1076.0,475.0,681.0,94.0,116.0
206,123.0,-1068.0,451.0,705.0,100.0,91.0
207,66.0,-1072.0,485.0,704.0,117.0,53.0
208,75.0,-1054.0,489.0,710.0,85.0,-3.0
209,69.0,-1065.0,483.0,704.0,76.0,-53.0
210,49.0,-1116.0,502.0,715.0,49.0,-110.0
211,194.0,-940.0,472.0,770.0,-56.0,-201.0
212,41.0,-1095.0,483.0,722.0,66.0,-195.0
213,59.0,-1005.0,497.0,769.0,57.0,-167.0
214,90.0,-1018.0,489.0,788.0,24.0,-188.0
215,354.0,-1111.0,602.0,1304.0,418.0,-627.0
216,171.0,-1081.0,697.0,1912.0,362.0,-308.0
217,298.0,-937.0,546.0,2164.0,372.0,-367.0
218,273.0,-836.0,546.0,2182.0,381.0,-451.0
219,163.0,-725.0,532.0,2118.0,422.0,-489.0
220,147.0,-587.0,485.0,1966.0,364.0,-467.0
221,137.0,-517.0,415.0,1743.0,301.0,-433.0
222,122.0,-427.0,352.0,1503.0,239.0,-410.0
223,60.0,-314.0,282.0,1226.0,215.0,-384.0
224,-123.0,-172.0,68.0,836.0,214.0,-318.0
225,-413.0,-286.0,47.0,354.0,151.0,-141.0
226,11.0,-384.0,-73.0,82.0,-398.0,-36.0
227,55.0,-323.0,-80.0,-79.0,-438.0,-111.0
228,-72.0,-782.0,164.0,-2822.0,618.0,525.0
229,385.0,-1364.0,555.0,-2926.0,-788.0,674.0
230,389.0,-1367.0,562.0,-2920.0,-781.0,681.0
231,375.0,-1376.0,566.0,-2913.0,-786.0,670.0
232,397.0,-1393.0,563.0,-2897.0,-800.0,625.0
233,408.0,-1419.0,559.0,-2859.0,-788.0,565.0
234,426.0,-1436.0,555.0,-2795.0,-749.0,519.0
235,436.0,-1407.0,548.0,-2722.0,-692.0,487.0
236,462.0,-1400.0,531.0,-2665.0,-620.0,459.0
237,512.0,-1415.0,524.0,-2598.0,-526.0,422.0
238,558.0,-1385.0,529.0,-2509.0,-404.0,369.0
239,565.0,-1371.0,545.0,-2428.0,-260.0,295.0
240,-29.0,-972.0,482.0,-608.0,26.0,-148.0
241,-74.0,-899.0,442.0,-500.0,38.0,-151.0
242,-49.0,-916.0,387.0,-441.0,23.0,-127.0
243,-15.0,-952.0,330.0,-374.0,20.0,-92.0
244,12.0,-899.0,275.0,-281.0,27.0,-90.0
245,24.0,-878.0,246.0,-225.0,34.0,-102.0
246,38.0,-911.0,240.0,-185.0,50.0,-103.0
247,25.0,-876.0,224.0,-116.0,73.0,-109.0
248,0.0,-787.0,202.0,-72.0,88.0,-131.0
249,19.0,-840.0,189.0,-86.0,90.0,-133.0
250,50.0,-900.0,200.0,-60.0,109.0,-117.0
251,666.0,-1959.0,-1958.0,283.0,707.0,-194.0
252,192.0,-953.0,-30.0,802.0,-124.0,-349.0
253,227.0,-990.0,21.0,302.0,168.0,-59.0
254,194.0,-981.0,57.0,347.0,226.0,-126.0
255,183.0,-973.0,68.0,368.0,275.0,-132.0
256,189.0,-952.0,122.0,387.0,283.0,-131.0
257,185.0,-972.0,123.0,371.0,291.0,-119.0
258,165.0,-985.0,103.0,371.0,281.0,-105.0
259,165.0,-980.0,123.0,393.0,224.0,-88.0
260,166.0,-987.0,111.0,411.0,166.0,-66.0
261,181.0,-1009.0,59.0,439.0,124.0,-54.0
262,183.0,-1006.0,62.0,498.0,99.0,-49.0
263,191.0,-994.0,97.0,556.0,97.0,-60.0
264,216.0,-1013.0,93.0,596.0,132.0,-73.0
265,163.0,-907.0,304.0,236.0,-42.0,-132.0
266,119.0,-934.0,279.0,85.0,154.0,-145.0
267,203.0,-933.0,260.0,80.0,103.0,-75.0
268,196.0,-939.0,263.0,85.0,103.0,-43.0
269,168.0,-937.0,269.0,85.0,116.0,-35.0
270,180.0,-935.0,274.0,85.0,118.0,-36.0
271,177.0,-930.0,275.0,83.0,136.0,-38.0
272,168.0,-933.0,271.0,82.0,152.0,-40.0
273,200.0,-946.0,272.0,85.0,149.0,-40.0
274,182.0,-965.0,262.0,93.0,170.0,-33.0
275,169.0,-980.0,282.0,107.0,173.0,-26.0
276,202.0,-1027.0,258.0,117.0,178.0,-35.0
277,199.0,-993.0,259.0,147.0,204.0,-48.0
278,134.0,-961.0,316.0,249.0,237.0,-41.0
279,202.0,-872.0,329.0,202.0,193.0,-75.0
280,163.0,-1037.0,355.0,214.0,194.0,28.0
281,114.0,-1006.0,388.0,273.0,196.0,21.0
282,89.0,-1007.0,384.0,284.0,189.0,-9.0
283,150.0,-989.0,367.0,318.0,154.0,-45.0
284,135.0,-946.0,381.0,354.0,146.0,-52.0
285,121.0,-935.0,384.0,365.0,143.0,-66.0
286,147.0,-929.0,381.0,372.0,118.0,-81.0
287,142.0,-879.0,386.0,385.0,105.0,-69.0
288,34.0,-862.0,405.0,378.0,108.0,-56.0
289,24.0,-879.0,412.0,363.0,54.0,-80.0
290,265.0,-1070.0,355.0,351.0,-20.0,-117.0
291,179.0,-786.0,511.0,363.0,92.0,-229.0
292,163.0,-839.0,541.0,346.0,60.0,-215.0
293,153.0,-848.0,544.0,354.0,63.0,-215.0
294,170.0,-832.0,542.0,371.0,53.0,-223.0
295,181.0,-821.0,534.0,383.0,55.0,-232.0
296,192.0,-820.0,535.0,398.0,65.0,-248.0
297,204.0,-805.0,547.0,413.0,71.0,-258.0
298,206.0,-798.0,539.0,418.0,83.0,-265.0
299,208.0,-781.0,554.0,423.0,92.0,-257.0
300,217.0,-763.0,562.0,425.0,92.0,-247.0
301,229.0,-749.0,567.0,423.0,96.0,-242.0
302,210.0,-735.0,565.0,416.0,116.0,-227.0
303,290.0,-696.0,620.0,602.0,114.0,-40.0
304,87.0,-698.0,708.0,236.0,276.0,-203.0
305,504.0,-693.0,664.0,169.0,381.0,-318.0
306,477.0,-693.0,697.0,194.0,457.0,-351.0
307,510.0,-721.0,752.0,212.0,506.0,-405.0
308,465.0,-807.0,766.0,225.0,614.0,-471.0
309,484.0,-880.0,705.0,279.0,662.0,-560.0
310,499.0,-852.0,664.0,345.0,732.0,-703.0
311,363.0,-950.0,710.0,364.0,910.0,-816.0
312,234.0,-1087.0,752.0,420.0,978.0,-854.0
313,243.0,-1150.0,709.0,538.0,913.0,-889.0
314,259.0,-1177.0,676.0,661.0,909.0,-937.0
315,258.0,-1327.0,705.0,768.0,946.0,-949.0
316,-59.0,318.0,-430.0,-152.0,713.0,-131.0
317,420.0,-1783.0,562.0,-4492.0,123.0,388.0
318,515.0,-1788.0,759.0,-4350.0,75.0,135.0
319,595.0,-1870.0,916.0,-4228.0,88.0,-86.0
320,711.0,-1866.0,1061.0,-4013.0,170.0,-256.0
321,759.0,-1821.0,1175.0,-3788.0,405.0,-444.0
322,346.0,-1865.0,1265.0,-3615.0,876.0,-582.0
323,-87.0,-1868.0,1299.0,-3365.0,1220.0,-490.0
324,-180.0,-1702.0,1240.0,-3016.0,1300.0,-194.0
325,-152.0,-1613.0,1118.0,-2730.0,1380.0,60.0
326,-109.0,-1496.0,1001.0,-2458.0,1463.0,186.0
327,-297.0,-1403.0,961.0,-2193.0,1569.0,238.0
328,1333.0,-1959.0,-1958.0,876.0,362.0,254.0
329,288.0,-810.0,273.0,921.0,-172.0,-339.0
330,252.0,-850.0,295.0,743.0,-115.0,-197.0
331,226.0,-918.0,249.0,559.0,-73.0,-103.0
332,190.0,-947.0,221.0,449.0,-30.0,-47.0
333,132.0,-945.0,243.0,367.0,2.0,-6.0
334,66.0,-1019.0,207.0,278.0,19.0,-17.0
335,102.0,-1065.0,90.0,253.0,-12.0,-85.0
336,129.0,-1015.0,108.0,347.0,-49.0,-116.0
337,166.0,-935.0,228.0,41.0,31.0,-82.0
338,179.0,-934.0,227.0,39.0,28.0,-62.0
339,164.0,-943.0,221.0,38.0,45.0,-44.0
340,152.0,-945.0,234.0,42.0,57.0,-37.0
341,125.0,-947.0,253.0,39.0,65.0,-38.0
342,143.0,-958.0,249.0,29.0,49.0,-53.0
343,148.0,-958.0,241.0,20.0,44.0,-62.0
344,169.0,-958.0,225.0,14.0,35.0,-66.0
345,144.0,-964.0,235.0,13.0,53.0,-67.0
346,150.0,-968.0,235.0,10.0,64.0,-86.0
347,152.0,-974.0,224.0,7.0,83.0,-104.0
348,134.0,-933.0,269.0,17.0,170.0,-219.0
349,221.0,-943.0,243.0,-52.0,157.0,-33.0
350,201.0,-954.0,232.0,-57.0,177.0,-21.0
351,197.0,-960.0,232.0,-51.0,190.0,-26.0
352,202.0,-952.0,233.0,-44.0,205.0,-35.0
353,189.0,-964.0,225.0,-43.0,230.0,-44.0
354,181.0,-956.0,234.0,-33.0,237.0,-58.0
355,189.0,-958.0,231.0,-26.0,237.0,-72.0
356,184.0,-966.0,229.0,-20.0,253.0,-91.0
357,188.0,-966.0,214.0,-11.0,269.0,-120.0
358,174.0,-946.0,249.0,5.0,281.0,-144.0
359,170.0,-960.0,242.0,-7.0,289.0,-173.0
360,230.0,-964.0,245.0,94.0,377.0,-96.0
361,178.0,-932.0,295.0,222.0,327.0,18.0
362,184.0,-932.0,294.0,206.0,331.0,10.0
363,189.0,-933.0,294.0,200.0,332.0,4.0
364,202.0,-951.0,292.0,198.0,331.0,-3.0
365,196.0,-973.0,258.0,196.0,348.0,-22.0
366,189.0,-966.0,287.0,210.0,350.0,-43.0
367,207.0,-956.0,293.0,215.0,344.0,-60.0
368,217.0,-962.0,283.0,202.0,357.0,-76.0
369,230.0,-948.0,299.0,197.0,370.0,-92.0
370,228.0,-973.0,299.0,174.0,396.0,-105.0
371,236.0,-994.0,290.0,161.0,419.0,-132.0
372,284.0,-1022.0,263.0,152.0,435.0,-175.0
373,306.0,-1054.0,251.0,150.0,477.0,-240.0
374,360.0,-1060.0,255.0,158.0,514.0,-293.0
375,407.0,-1069.0,244.0,177.0,558.0,-346.0
376,450.0,-1057.0,242.0,195.0,632.0,-411.0
377,395.0,-1080.0,245.0,194.0,726.0,-472.0
378,357.0,-1030.0,249.0,223.0,769.0,-539.0
379,119.0,-888.0,393.0,266.0,736.0,-534.0
380,55.0,-881.0,418.0,275.0,710.0,-416.0
381,68.0,-859.0,407.0,293.0,639.0,-312.0
382,119.0,-806.0,390.0,312.0,570.0,-215.0
383,183.0,-779.0,351.0,283.0,535.0,-189.0
384,217.0,-768.0,332.0,258.0,526.0,-158.0
385,320.0,-765.0,335.0,227.0,506.0,-147.0
386,372.0,-779.0,352.0,189.0,554.0,-136.0
387,345.0,-813.0,367.0,160.0,639.0,-104.0
388,647.0,-754.0,181.0,-174.0,2673.0,-604.0
389,479.0,-1133.0,-66.0,-988.0,4729.0,-1558.0
390,294.0,-1185.0,-58.0,-991.0,5145.0,-1595.0
391,107.0,-1196.0,-24.0,-963.0,5429.0,-1572.0
392,79.0,-1263.0,-55.0,-907.0,5523.0,-1551.0
393,98.0,-1285.0,-110.0,-791.0,5571.0,-1547.0
394,77.0,-1251.0,-290.0,-569.0,5700.0,-1630.0
395,23.0,-1229.0,-390.0,-500.0,5779.0,-1648.0
396,-38.0,-1227.0,-479.0,-454.0,5850.0,-1658.0
397,-85.0,-1205.0,-543.0,-405.0,5880.0,-1647.0
398,-73.0,-1152.0,-601.0,-368.0,5875.0,-1611.0
399,-38.0,-1095.0,-575.0,-359.0,5884.0,-1603.0
400,-47.0,-1176.0,-711.0,-396.0,6021.0,-1620.0
401,-59.0,-1097.0,-737.0,-392.0,6130.0,-1608.0
402,-149.0,-1167.0,-758.0,-480.0,6243.0,-1617.0
403,43.0,-780.0,806.0,73.0,-131.0,-490.0
404,-238.0,-903.0,967.0,-102.0,137.0,-319.0
405,-56.0,-814.0,680.0,-163.0,-59.0,-308.0
406,118.0,-992.0,258.0,-302.0,-143.0,-320.0
407,145.0,-952.0,121.0,-305.0,-153.0,-256.0
408,-53.0,-932.0,215.0,-253.0,-59.0,-212.0
409,-35.0,-884.0,309.0,-190.0,-70.0,-253.0
410,193.0,-864.0,312.0,-172.0,-173.0,-269.0
411,302.0,-892.0,268.0,-199.0,-125.0,-165.0
412,203.0,-904.0,246.0,-202.0,26.0,-3.0
413,91.0,-896.0,287.0,-193.0,83.0,114.0
414,95.0,-892.0,364.0,-192.0,26.0,165.0
415,139.0,-944.0,361.0,-220.0,-18.0,193.0
416,113.0,-1096.0,312.0,-240.0,36.0,222.0
417,29.0,-1195.0,279.0,-204.0,80.0,227.0
418,-21.0,-1149.0,282.0,-90.0,-12.0,109.0
419,120.0,-931.0,282.0,-122.0,117.0,45.0
420,26.0,-952.0,281.0,-186.0,265.0,78.0
421,23.0,-958.0,275.0,-197.0,260.0,62.0
422,10.0,-973.0,267.0,-202.0,254.0,44.0
423,15.0,-961.0,257.0,-197.0,238.0,25.0
424,18.0,-965.0,261.0,-183.0,224.0,11.0
425,38.0,-966.0,260.0,-171.0,213.0,-3.0
426,50.0,-968.0,258.0,-158.0,212.0,-6.0
427,68.0,-982.0,253.0,-142.0,219.0,-4.0
428,70.0,-990.0,250.0,-127.0,238.0,-1.0
429,67.0,-986.0,251.0,-113.0,258.0,0.0
430,49.0,-989.0,247.0,-105.0,281.0,-4.0
431,70.0,-1013.0,268.0,82.0,181.0,36.0
432,162.0,-1205.0,257.0,399.0,-50.0,-463.0
433,205.0,-1150.0,252.0,482.0,44.0,-583.0
434,243.0,-1184.0,243.0,476.0,155.0,-726.0
435,359.0,-1192.0,236.0,443.0,170.0,-830.0
436,551.0,-1231.0,154.0,423.0,191.0,-818.0
437,868.0,-1044.0,-63.0,480.0,317.0,-723.0
438,704.0,-836.0,-235.0,358.0,894.0,-727.0
439,369.0,-849.0,-470.0,34.0,1484.0,-806.0
440,74.0,-697.0,-686.0,-216.0,1669.0,-746.0
441,-281.0,-784.0,-903.0,-569.0,1750.0,-545.0
442,-529.0,-928.0,-999.0,-846.0,1621.0,-275.0
443,132.0,-1458.0,209.0,-2537.0,347.0,153.0
444,0.0,-972.0,214.0,-343.0,117.0,-29.0
445,77.0,-987.0,196.0,-250.0,52.0,10.0
446,182.0,-984.0,146.0,-151.0,-14.0,23.0
447,194.0,-946.0,75.0,-54.0,-41.0,-10.0
448,120.0,-921.0,14.0,19.0,-69.0,-46.0
449,101.0,-902.0,-40.0,72.0,-144.0,-63.0
450,115.0,-855.0,-129.0,109.0,-212.0,-84.0
451,140.0,-775.0,-228.0,112.0,-242.0,-107.0
452,142.0,-756.0,-243.0,65.0,-226.0,-117.0
453,138.0,-815.0,-191.0,9.0,-167.0,-116.0
454,116.0,-865.0,-107.0,0.0,-73.0,-100.0
455,-213.0,-814.0,408.0,676.0,185.0,67.0
456,-209.0,-340.0,440.0,782.0,101.0,83.0
457,31.0,-90.0,108.0,346.0,152.0,80.0
458,150.0,-463.0,-676.0,-658.0,341.0,-161.0
459,527.0,-1675.0,-1847.0,-1404.0,389.0,-344.0
460,878.0,-1959.0,-1958.0,-217.0,552.0,-129.0
461,354.0,-1925.0,-1958.0,2929.0,1438.0,387.0
462,-739.0,118.0,-329.0,3278.0,1389.0,327.0
463,-319.0,-1518.0,1180.0,2013.0,503.0,53.0
464,182.0,-877.0,1465.0,1818.0,93.0,-226.0
465,119.0,-805.0,577.0,1629.0,219.0,-249.0
466,-3.0,-1023.0,-97.0,1116.0,215.0,-193.0
467,171.0,-871.0,198.0,778.0,112.0,-84.0
468,148.0,-881.0,237.0,632.0,142.0,-62.0
469,115.0,-935.0,191.0,483.0,182.0,-76.0
470,148.0,-958.0,170.0,397.0,186.0,-104.0
471,211.0,-953.0,151.0,349.0,182.0,-90.0
472,142.0,-970.0,128.0,306.0,235.0,-51.0
473,104.0,-1007.0,87.0,291.0,235.0,-49.0
474,101.0,-1093.0,29.0,334.0,180.0,-79.0
475,102.0,-1166.0,-83.0,470.0,124.0,-134.0
476,136.0,-1080.0,-45.0,714.0,56.0,-168.0
477,135.0,-902.0,217.0,863.0,-15.0,-156.0
478,169.0,-986.0,139.0,751.0,-10.0,-135.0
479,137.0,-1129.0,-17.0,745.0,69.0,-138.0
480,230.0,-1152.0,-87.0,913.0,15.0,-108.0
481,237.0,-1057.0,12.0,1101.0,-45.0,39.0
482,318.0,-914.0,235.0,84.0,73.0,-470.0
483,272.0,-969.0,196.0,64.0,121.0,-289.0
484,285.0,-918.0,179.0,149.0,146.0,-44.0
485,294.0,-883.0,207.0,172.0,145.0,32.0
486,284.0,-882.0,228.0,178.0,152.0,112.0
487,262.0,-903.0,226.0,171.0,175.0,178.0
488,272.0,-892.0,236.0,165.0,171.0,232.0
489,248.0,-882.0,258.0,146.0,182.0,276.0
490,126.0,-890.0,287.0,109.0,229.0,285.0
491,106.0,-900.0,276.0,72.0,219.0,239.0
492,156.0,-879.0,279.0,46.0,176.0,209.0
493,181.0,-894.0,281.0,21.0,154.0,204.0
494,171.0,-931.0,255.0,4.0,162.0,202.0
495,148.0,-966.0,264.0,103.0,39.0,-92.0
496,137.0,-964.0,270.0,95.0,66.0,-105.0
497,138.0,-957.0,273.0,89.0,84.0,-118.0
498,145.0,-967.0,255.0,89.0,101.0,-128.0
499,136.0,-976.0,238.0,96.0,118.0,-131.0
500,119.0,-946.0,271.0,115.0,117.0,-129.0
501,130.0,-946.0,273.0,113.0,101.0,-135.0
502,161.0,-939.0,248.0,106.0,82.0,-131.0
503,162.0,-946.0,254.0,102.0,72.0,-103.0
504,160.0,-974.0,300.0,275.0,172.0,-53.0
505,101.0,-1038.0,380.0,664.0,329.0,44.0
506,52.0,-1027.0,400.0,681.0,300.0,9.0
507,55.0,-1016.0,400.0,690.0,239.0,-35.0
508,29.0,-1049.0,405.0,692.0,189.0,-52.0
509,94.0,-1073.0,421.0,729.0,87.0,-80.0
510,220.0,-939.0,409.0,808.0,-17.0,-111.0
511,196.0,-858.0,393.0,776.0,5.0,-101.0
512,120.0,-820.0,414.0,688.0,58.0,-93.0
513,86.0,-849.0,423.0,609.0,57.0,-66.0
514,144.0,-843.0,425.0,565.0,20.0,-26.0
515,167.0,-888.0,422.0,533.0,9.0,44.0
516,76.0,-1227.0,517.0,1048.0,645.0,-510.0
517,-52.0,-799.0,506.0,2035.0,265.0,-803.0
518,-33.0,-690.0,427.0,1871.0,30.0,-806.0
519,235.0,-743.0,260.0,1636.0,-221.0,-807.0
520,462.0,-608.0,26.0,1431.0,-187.0,-774.0
521,217.0,-621.0,55.0,1117.0,194.0,-674.0
522,46.0,-588.0,-88.0,874.0,390.0,-471.0
523,-38.0,-457.0,-125.0,649.0,416.0,-194.0
524,141.0,-1111.0,139.0,-3012.0,-381.0,823.0
525,105.0,-1203.0,180.0,-3052.0,-530.0,825.0
526,122.0,-1322.0,210.0,-3087.0,-734.0,820.0
527,159.0,-1422.0,256.0,-3084.0,-939.0,797.0
528,237.0,-1487.0,289.0,-3048.0,-1117.0,755.0
529,383.0,-1502.0,308.0,-2987.0,-1251.0,724.0
530,499.0,-1507.0,315.0,-2938.0,-1252.0,683.0
531,588.0,-1486.0,315.0,-2912.0,-1153.0,643.0
532,626.0,-1466.0,323.0,-2932.0,-963.0,629.0
533,626.0,-1517.0,344.0,-2989.0,-730.0,639.0
534,621.0,-1588.0,372.0,-3026.0,-498.0,651.0
535,95.0,-1191.0,548.0,-1459.0,-152.0,-122.0
536,88.0,-940.0,171.0,-284.0,-635.0,-69.0
537,117.0,-941.0,139.0,-237.0,-608.0,-78.0
538,142.0,-913.0,123.0,-187.0,-564.0,-82.0
539,170.0,-903.0,119.0,-157.0,-507.0,-96.0
540,175.0,-903.0,121.0,-133.0,-438.0,-125.0
541,186.0,-891.0,125.0,-103.0,-373.0,-148.0
542,186.0,-906.0,138.0,-74.0,-304.0,-150.0
543,198.0,-909.0,134.0,-31.0,-235.0,-154.0
544,189.0,-891.0,106.0,19.0,-152.0,-173.0
545,136.0,-861.0,82.0,55.0,-70.0,-186.0
546,103.0,-878.0,51.0,66.0,-28.0,-191.0
547,96.0,-884.0,16.0,88.0,-13.0,-192.0
548,73.0,-875.0,10.0,115.0,-6.0,-201.0
549,68.0,-889.0,21.0,135.0,-16.0,-221.0
550,39.0,-888.0,47.0,162.0,-24.0,-236.0
551,-21.0,-966.0,77.0,666.0,-182.0,-169.0
552,163.0,-1934.0,-1810.0,3516.0,805.0,48.0
553,-95.0,-637.0,128.0,3990.0,247.0,318.0
554,98.0,-736.0,1027.0,2787.0,-92.0,341.0
555,-6.0,-412.0,1365.0,2291.0,-17.0,137.0
556,138.0,-605.0,958.0,1758.0,-145.0,18.0
557,226.0,-1014.0,216.0,1101.0,-83.0,75.0
558,-75.0,-1146.0,-126.0,871.0,77.0,160.0
559,-70.0,-1080.0,-53.0,918.0,-73.0,66.0
560,72.0,-1086.0,17.0,699.0,142.0,-290.0
561,100.0,-1014.0,104.0,788.0,70.0,-280.0
562,143.0,-967.0,167.0,808.0,37.0,-265.0
563,168.0,-924.0,200.0,764.0,48.0,-244.0
564,132.0,-855.0,316.0,673.0,83.0,-200.0
565,78.0,-833.0,398.0,537.0,76.0,-159.0
566,104.0,-984.0,213.0,403.0,52.0,-168.0
567,105.0,-984.0,200.0,388.0,40.0,-170.0
568,152.0,-938.0,229.0,386.0,-10.0,-157.0
569,169.0,-925.0,222.0,350.0,-18.0,-124.0
570,122.0,-897.0,259.0,322.0,0.0,-84.0
571,61.0,-913.0,267.0,242.0,55.0,-114.0
572,140.0,-956.0,243.0,158.0,205.0,-293.0
573,193.0,-961.0,253.0,135.0,172.0,-65.0
574,177.0,-942.0,267.0,144.0,176.0,-49.0
575,149.0,-948.0,261.0,143.0,186.0,-40.0
576,161.0,-937.0,268.0,145.0,177.0,-40.0
577,173.0,-928.0,272.0,145.0,166.0,-27.0
578,179.0,-920.0,264.0,142.0,164.0,-8.0
579,183.0,-904.0,273.0,139.0,158.0,15.0
580,170.0,-881.0,290.0,126.0,153.0,41.0
581,159.0,-876.0,296.0,104.0,151.0,64.0
582,148.0,-887.0,299.0,80.0,149.0,77.0
583,152.0,-901.0,285.0,58.0,147.0,85.0
584,173.0,-940.0,287.0,91.0,89.0,-46.0
585,195.0,-976.0,284.0,47.0,109.0,-199.0
586,186.0,-960.0,314.0,52.0,119.0,-198.0
587,182.0,-999.0,320.0,45.0,122.0,-198.0
588,195.0,-1013.0,316.0,64.0,133.0,-229.0
589,220.0,-1122.0,290.0,86.0,145.0,-249.0
590,304.0,-1154.0,220.0,190.0,152.0,-278.0
591,317.0,-1153.0,214.0,340.0,207.0,-313.0
592,270.0,-1122.0,275.0,517.0,258.0,-327.0
593,213.0,-1123.0,248.0,644.0,279.0,-357.0
594,283.0,-1035.0,315.0,790.0,279.0,-400.0
595,251.0,-1095.0,316.0,866.0,309.0,-426.0
596,302.0,-749.0,435.0,417.0,182.0,-276.0
597,258.0,-782.0,444.0,362.0,208.0,-253.0
598,258.0,-780.0,449.0,328.0,212.0,-243.0
599,231.0,-800.0,452.0,300.0,232.0,-204.0
600,206.0,-826.0,470.0,292.0,229.0,-173.0
601,216.0,-825.0,470.0,307.0,203.0,-133.0
602,219.0,-821.0,459.0,324.0,181.0,-96.0
603,200.0,-815.0,447.0,342.0,167.0,-71.0
604,231.0,-785.0,467.0,367.0,145.0,-43.0
605,263.0,-783.0,476.0,381.0,132.0,-15.0
606,315.0,-780.0,459.0,394.0,125.0,-4.0
607,328.0,-942.0,483.0,404.0,176.0,-5.0
608,308.0,-1076.0,556.0,2463.0,380.0,-498.0
609,346.0,-932.0,537.0,2469.0,242.0,-439.0
610,395.0,-868.0,483.0,2393.0,172.0,-410.0
611,254.0,-752.0,436.0,2318.0,211.0,-327.0
612,297.0,-597.0,346.0,2219.0,48.0,-246.0
613,336.0,-412.0,208.0,2023.0,-67.0,-258.0
614,326.0,-242.0,89.0,1711.0,-48.0,-292.0
615,410.0,-270.0,-58.0,1269.0,49.0,-247.0
616,476.0,-206.0,-210.0,817.0,242.0,-175.0
617,-7.0,-201.0,-284.0,287.0,820.0,-27.0
618,-397.0,-457.0,-166.0,-159.0,936.0,412.0
619,-113.0,-289.0,-237.0,-325.0,368.0,519.0
620,510.0,-1504.0,659.0,-3372.0,100.0,565.0
621,485.0,-1509.0,720.0,-3291.0,203.0,519.0
622,512.0,-1459.0,752.0,-3168.0,266.0,432.0
623,439.0,-1428.0,768.0,-3036.0,354.0,322.0
624,314.0,-1395.0,773.0,-2877.0,432.0,226.0
625,182.0,-1323.0,761.0,-2703.0,462.0,168.0
626,110.0,-1277.0,739.0,-2562.0,440.0,137.0
627,51.0,-1213.0,773.0,-2390.0,391.0,117.0
628,38.0,-1316.0,751.0,-2316.0,328.0,91.0
629,53.0,-1128.0,792.0,-2171.0,249.0,69.0
630,34.0,-1240.0,788.0,-2060.0,211.0,71.0
631,-104.0,-1211.0,319.0,637.0,-568.0,136.0
632,392.0,-1094.0,-388.0,2072.0,287.0,109.0
633,71.0,-895.0,81.0,2330.0,409.0,295.0
634,-155.0,-778.0,336.0,2269.0,333.0,197.0
635,-226.0,-902.0,326.0,1999.0,195.0,-94.0
636,-125.0,-1095.0,77.0,1805.0,64.0,-411.0
637,-54.0,-1278.0,-201.0,1843.0,27.0,-641.0
638,103.0,-1261.0,-283.0,2072.0,-109.0,-655.0
639,280.0,-850.0,28.0,2251.0,-384.0,-303.0
640,732.0,-584.0,485.0,1962.0,-715.0,161.0
641,122.0,-504.0,665.0,1376.0,-229.0,416.0
642,178.0,-820.0,558.0,783.0,-7.0,254.0
643,126.0,-926.0,291.0,-1.0,113.0,-275.0
644,48.0,-918.0,292.0,24.0,124.0,-54.0
645,96.0,-937.0,278.0,17.0,100.0,-88.0
646,114.0,-943.0,273.0,14.0,92.0,-100.0
647,133.0,-917.0,275.0,16.0,86.0,-102.0
648,139.0,-898.0,274.0,11.0,92.0,-95.0
649,145.0,-878.0,273.0,1.0,105.0,-90.0
650,118.0,-855.0,293.0,-18.0,129.0,-83.0
651,81.0,-898.0,311.0,-55.0,145.0,-86.0
652,112.0,-1016.0,252.0,-74.0,137.0,-108.0
653,188.0,-1007.0,242.0,-44.0,101.0,-105.0
654,182.0,-1012.0,230.0,-17.0,108.0,-67.0
655,121.0,-981.0,269.0,102.0,66.0,-36.0
656,126.0,-958.0,273.0,115.0,61.0,-38.0
657,99.0,-941.0,282.0,118.0,63.0,-40.0
658,117.0,-926.0,289.0,118.0,46.0,-49.0
659,140.0,-918.0,295.0,112.0,34.0,-48.0
660,137.0,-919.0,292.0,99.0,39.0,-38.0
661,114.0,-938.0,295.0,83.0,48.0,-34.0
662,108.0,-949.0,289.0,73.0,48.0,-44.0
663,100.0,-952.0,276.0,67.0,43.0,-60.0
664,107.0,-930.0,295.0,70.0,31.0,-74.0
665,129.0,-919.0,306.0,61.0,13.0,-79.0
666,153.0,-940.0,282.0,-37.0,-4.0,-118.0
667,156.0,-940.0,279.0,-42.0,0.0,-119.0
668,190.0,-924.0,278.0,-49.0,1.0,-123.0
669,204.0,-917.0,277.0,-59.0,25.0,-118.0
670,170.0,-922.0,285.0,-69.0,62.0,-109.0
671,132.0,-945.0,293.0,-79.0,84.0,-114.0
672,137.0,-967.0,283.0,-87.0,87.0,-144.0
673,156.0,-975.0,283.0,-86.0,92.0,-169.0
674,169.0,-1003.0,268.0,-81.0,103.0,-180.0
675,194.0,-986.0,258.0,-58.0,105.0,-179.0
676,203.0,-956.0,266.0,-12.0,350.0,79.0
677,168.0,-968.0,261.0,-3.0,387.0,80.0
678,168.0,-954.0,251.0,8.0,396.0,73.0
679,148.0,-935.0,270.0,12.0,396.0,71.0
680,132.0,-924.0,287.0,9.0,387.0,72.0
681,141.0,-905.0,295.0,1.0,368.0,71.0
682,139.0,-955.0,278.0,-20.0,385.0,56.0
683,201.0,-908.0,274.0,-27.0,405.0,28.0
684,108.0,-961.0,286.0,-38.0,455.0,16.0
685,141.0,-1020.0,272.0,-40.0,438.0,-11.0
686,194.0,-1016.0,255.0,-22.0,427.0,-25.0
687,364.0,-853.0,253.0,39.0,426.0,-562.0
688,767.0,-595.0,273.0,-866.0,1730.0,-290.0
689,988.0,-571.0,276.0,-1040.0,1984.0,-382.0
690,819.0,-709.0,296.0,-1238.0,2538.0,-365.0
691,643.0,-768.0,285.0,-1338.0,3050.0,-273.0
692,169.0,-871.0,449.0,-1414.0,3563.0,-146.0
693,253.0,-1120.0,601.0,-1373.0,3615.0,-24.0
694,103.0,-961.0,699.0,-1150.0,3752.0,76.0
695,95.0,-1052.0,654.0,-1064.0,3802.0,234.0
696,132.0,-999.0,569.0,-934.0,3818.0,279.0
697,184.0,-1005.0,447.0,-848.0,3852.0,207.0
698,200.0,-1046.0,332.0,-754.0,3921.0,96.0
699,-29.0,-986.0,-237.0,-528.0,4297.0,-369.0
700,-215.0,-1070.0,-135.0,-632.0,3945.0,-244.0
701,-221.0,-1074.0,-98.0,-607.0,3809.0,-220.0
702,-216.0,-1086.0,-65.0,-574.0,3672.0,-196.0
703,-221.0,-1083.0,-29.0,-518.0,3531.0,-174.0
704,-225.0,-1074.0,5.0,-452.0,3375.0,-169.0
705,-206.0,-1058.0,39.0,-379.0,3206.0,-164.0
706,-175.0,-1031.0,82.0,-304.0,3039.0,-149.0
707,-67.0,-1004.0,119.0,-238.0,2879.0,-124.0
708,37.0,-974.0,149.0,-179.0,2779.0,-112.0
709,56.0,-952.0,166.0,-136.0,2753.0,-143.0
710,55.0,-885.0,168.0,-105.0,2728.0,-182.0
711,-37.0,-853.0,276.0,75.0,1263.0,-332.0
712,129.0,-960.0,168.0,427.0,-269.0,-269.0
713,149.0,-949.0,199.0,406.0,-223.0,-240.0
714,174.0,-937.0,197.0,363.0,-169.0,-213.0
715,135.0,-940.0,199.0,302.0,-106.0,-170.0
716,149.0,-955.0,176.0,239.0,-86.0,-126.0
717,137.0,-957.0,172.0,190.0,-46.0,-93.0
718,144.0,-981.0,146.0,136.0,-4.0,-59.0
719,126.0,-1003.0,139.0,110.0,50.0,-32.0
720,97.0,-1012.0,135.0,121.0,91.0,-26.0
721,35.0,-989.0,163.0,96.0,102.0,-51.0
722,86.0,-1002.0,138.0,-38.0,198.0,-67.0
723,93.0,-997.0,136.0,-17.0,190.0,-59.0
724,109.0,-990.0,139.0,6.0,186.0,-48.0
725,103.0,-972.0,165.0,26.0,186.0,-23.0
726,108.0,-986.0,155.0,31.0,188.0,-3.0
727,94.0,-986.0,159.0,39.0,192.0,13.0
728,101.0,-975.0,170.0,41.0,194.0,23.0
729,60.0,-967.0,184.0,36.0,213.0,31.0
730,60.0,-980.0,173.0,24.0,215.0,15.0
731,74.0,-986.0,167.0,11.0,211.0,-5.0
732,81.0,-978.0,170.0,3.0,213.0,-7.0
733,73.0,-975.0,172.0,1.0,217.0,-5.0
734,71.0,-978.0,172.0,1.0,216.0,-10.0
735,92.0,-970.0,176.0,2.0,213.0,-17.0
736,79.0,-975.0,184.0,0.0,233.0,-13.0
737,52.0,-984.0,176.0,6.0,396.0,30.0
738,96.0,-1180.0,187.0,108.0,206.0,-163.0
739,171.0,-1252.0,193.0,167.0,237.0,-223.0
740,238.0,-1298.0,158.0,253.0,287.0,-293.0
741,327.0,-1329.0,137.0,369.0,311.0,-404.0
742,444.0,-1251.0,67.0,502.0,391.0,-614.0
743,348.0,-1252.0,26.0,568.0,602.0,-879.0
744,97.0,-1360.0,77.0,655.0,728.0,-1079.0
745,306.0,-892.0,79.0,827.0,571.0,-1392.0
746,217.0,-1061.0,37.0,616.0,796.0,-1338.0
747,-12.0,-1208.0,12.0,513.0,1028.0,-1083.0
748,76.0,-1062.0,-72.0,581.0,973.0,-1002.0
749,-113.0,-1023.0,-214.0,-2194.0,1320.0,459.0
750,148.0,-905.0,174.0,-178.0,27.0,71.0
751,118.0,-836.0,112.0,-127.0,90.0,55.0
752,93.0,-818.0,75.0,-125.0,134.0,38.0
753,64.0,-829.0,30.0,-136.0,165.0,44.0
754,39.0,-753.0,-42.0,-123.0,189.0,68.0
755,37.0,-664.0,-115.0,-164.0,202.0,112.0
756,82.0,-685.0,-155.0,-290.0,213.0,158.0
757,185.0,-823.0,-157.0,-417.0,240.0,183.0
758,330.0,-830.0,-151.0,-411.0,291.0,158.0
759,353.0,-776.0,-86.0,-383.0,377.0,80.0
760,435.0,-895.0,-55.0,-416.0,422.0,33.0
761,-214.0,-1051.0,223.0,1757.0,-383.0,-148.0
762,64.0,-933.0,613.0,1173.0,-581.0,-241.0
763,163.0,-895.0,199.0,800.0,-521.0,-305.0
764,231.0,-935.0,-67.0,701.0,-302.0,-288.0
765,125.0,-928.0,-259.0,770.0,37.0,-263.0
766,66.0,-914.0,-203.0,876.0,248.0,-260.0
767,78.0,-958.0,38.0,886.0,269.0,-248.0
768,91.0,-962.0,90.0,799.0,182.0,-227.0
769,89.0,-973.0,24.0,705.0,27.0,-182.0
770,59.0,-975.0,-48.0,645.0,-122.0,-130.0
771,26.0,-977.0,-36.0,594.0,-212.0,-91.0
772,-277.0,-1009.0,309.0,644.0,180.0,207.0
773,13.0,-927.0,299.0,213.0,132.0,-407.0
774,99.0,-867.0,287.0,180.0,89.0,-393.0
775,114.0,-850.0,281.0,158.0,84.0,-361.0
776,149.0,-818.0,285.0,136.0,73.0,-316.0
777,95.0,-809.0,291.0,106.0,92.0,-264.0
778,57.0,-839.0,292.0,74.0,91.0,-235.0
779,112.0,-871.0,287.0,53.0,55.0,-216.0
780,151.0,-895.0,284.0,46.0,53.0,-185.0
781,129.0,-934.0,284.0,47.0,80.0,-150.0
782,124.0,-980.0,289.0,54.0,88.0,-124.0
783,111.0,-954.0,317.0,126.0,202.0,-323.0
784,105.0,-869.0,334.0,83.0,175.0,-58.0
785,128.0,-870.0,329.0,61.0,148.0,-55.0
786,164.0,-866.0,321.0,44.0,131.0,-44.0
787,193.0,-862.0,317.0,28.0,137.0,-17.0
788,204.0,-845.0,309.0,19.0,157.0,23.0
789,156.0,-829.0,321.0,13.0,179.0,81.0
790,179.0,-828.0,334.0,-3.0,164.0,124.0
791,208.0,-836.0,315.0,-27.0,172.0,168.0
792,189.0,-837.0,318.0,-40.0,205.0,224.0
793,116.0,-975.0,338.0,212.0,140.0,-206.0
794,122.0,-970.0,337.0,245.0,123.0,-214.0
795,156.0,-931.0,336.0,290.0,102.0,-213.0
796,141.0,-876.0,352.0,320.0,105.0,-190.0
797,114.0,-824.0,354.0,316.0,111.0,-161.0
798,122.0,-796.0,357.0,285.0,109.0,-133.0
799,138.0,-859.0,354.0,242.0,120.0,-101.0
800,186.0,-1015.0,319.0,243.0,123.0,-75.0
801,229.0,-969.0,357.0,358.0,115.0,-38.0
802,209.0,-962.0,344.0,427.0,136.0,3.0
803,126.0,-918.0,374.0,487.0,163.0,22.0
804,148.0,-977.0,488.0,887.0,-125.0,-479.0
805,155.0,-851.0,515.0,696.0,117.0,-441.0
806,173.0,-851.0,520.0,713.0,114.0,-443.0
807,172.0,-828.0,518.0,737.0,118.0,-449.0
808,174.0,-810.0,528.0,759.0,119.0,-450.0
809,209.0,-796.0,536.0,781.0,106.0,-458.0
810,242.0,-782.0,533.0,803.0,104.0,-472.0
811,255.0,-793.0,539.0,813.0,122.0,-497.0
812,273.0,-844.0,533.0,828.0,147.0,-496.0
813,245.0,-950.0,554.0,852.0,181.0,-481.0
814,251.0,-1034.0,550.0,906.0,175.0,-492.0
815,311.0,-1034.0,558.0,991.0,148.0,-478.0
816,323.0,-835.0,811.0,1925.0,459.0,-559.0
817,-20.0,-295.0,-39.0,-2171.0,421.0,964.0
818,95.0,-1460.0,271.0,-3375.0,-750.0,872.0
819,170.0,-1459.0,294.0,-3378.0,-894.0,865.0
820,289.0,-1594.0,307.0,-3451.0,-1015.0,866.0
821,366.0,-1729.0,353.0,-3451.0,-1062.0,868.0
822,452.0,-1741.0,403.0,-3344.0,-1076.0,857.0
823,547.0,-1689.0,429.0,-3236.0,-1061.0,819.0
824,622.0,-1650.0,436.0,-3178.0,-1002.0,747.0
825,612.0,-1646.0,445.0,-3145.0,-885.0,661.0
826,568.0,-1631.0,455.0,-3091.0,-770.0,593.0
827,575.0,-1595.0,438.0,-3020.0,-693.0,538.0
828,557.0,-1538.0,422.0,-2971.0,-598.0,452.0
829,-65.0,-1087.0,845.0,-1084.0,159.0,7.0
830,-84.0,-1032.0,849.0,-894.0,155.0,2.0
831,-69.0,-1054.0,809.0,-732.0,136.0,19.0
832,-63.0,-980.0,750.0,-530.0,116.0,23.0
833,-68.0,-898.0,704.0,-373.0,79.0,4.0
834,-39.0,-962.0,662.0,-287.0,22.0,1.0
835,-60.0,-953.0,649.0,-138.0,-7.0,8.0
836,302.0,-1300.0,-1699.0,3753.0,768.0,763.0
837,-873.0,-1674.0,-391.0,1531.0,1316.0,-123.0
838,-382.0,-930.0,1370.0,1804.0,-330.0,-254.0
839,167.0,-923.0,1084.0,1258.0,-757.0,-345.0
840,99.0,-888.0,174.0,829.0,-596.0,-313.0
841,63.0,-1043.0,-363.0,657.0,-378.0,-306.0
842,-50.0,-984.0,-342.0,792.0,-150.0,-348.0
843,73.0,-944.0,-177.0,921.0,-33.0,-442.0
844,180.0,-920.0,1.0,945.0,59.0,-463.0
845,198.0,-928.0,19.0,870.0,140.0,-405.0
846,180.0,-940.0,-16.0,800.0,158.0,-306.0
847,58.0,-1007.0,-52.0,201.0,281.0,-11.0
848,42.0,-1009.0,-52.0,226.0,263.0,-10.0
849,63.0,-1011.0,-56.0,261.0,222.0,-11.0
850,45.0,-1029.0,-67.0,304.0,205.0,-5.0
851,36.0,-1050.0,-128.0,370.0,203.0,-22.0
852,19.0,-1028.0,-146.0,485.0,200.0,-53.0
853,48.0,-1006.0,-68.0,579.0,168.0,-89.0
854,55.0,-1012.0,-1.0,609.0,144.0,-102.0
855,50.0,-1077.0,-44.0,634.0,135.0,-114.0
856,55.0,-1160.0,-169.0,750.0,132.0,-150.0
857,41.0,-1314.0,-315.0,1000.0,147.0,-203.0
858,14.0,-1654.0,-785.0,2216.0,252.0,-503.0
859,92.0,-922.0,235.0,27.0,125.0,-136.0
860,92.0,-925.0,244.0,3.0,130.0,-114.0
861,93.0,-934.0,243.0,-18.0,125.0,-100.0
862,103.0,-964.0,215.0,-31.0,122.0,-92.0
863,84.0,-994.0,218.0,-26.0,122.0,-84.0
864,91.0,-1037.0,169.0,-13.0,125.0,-94.0
865,82.0,-1009.0,186.0,33.0,129.0,-100.0
866,51.0,-959.0,232.0,65.0,128.0,-98.0
867,45.0,-984.0,226.0,61.0,134.0,-128.0
868,70.0,-980.0,219.0,66.0,122.0,-164.0
869,45.0,-974.0,229.0,80.0,124.0,-183.0
870,101.0,-985.0,224.0,81.0,114.0,-224.0
871,131.0,-960.0,257.0,129.0,107.0,-106.0
872,134.0,-939.0,258.0,34.0,110.0,-44.0
873,143.0,-941.0,253.0,24.0,110.0,-34.0
874,150.0,-952.0,254.0,21.0,111.0,-17.0
875,155.0,-954.0,251.0,27.0,113.0,2.0
876,130.0,-950.0,254.0,31.0,120.0,21.0
877,128.0,-938.0,262.0,32.0,115.0,31.0
878,129.0,-939.0,263.0,29.0,112.0,41.0
879,137.0,-943.0,245.0,27.0,115.0,53.0
880,142.0,-925.0,267.0,36.0,111.0,81.0
881,143.0,-930.0,267.0,36.0,109.0,117.0
882,142.0,-945.0,253.0,36.0,108.0,144.0
883,128.0,-951.0,259.0,40.0,109.0,166.0
884,111.0,-951.0,272.0,43.0,105.0,176.0
885,102.0,-956.0,270.0,39.0,101.0,170.0
886,85.0,-963.0,265.0,35.0,100.0,156.0
887,100.0,-1026.0,240.0,-19.0,98.0,-4.0
888,102.0,-968.0,324.0,483.0,179.0,-71.0
889,146.0,-962.0,326.0,471.0,185.0,-70.0
890,153.0,-977.0,337.0,471.0,212.0,-53.0
891,135.0,-1011.0,313.0,477.0,251.0,-41.0
892,77.0,-1063.0,336.0,528.0,281.0,-53.0
893,-18.0,-1179.0,385.0,592.0,273.0,-94.0
894,50.0,-1247.0,347.0,677.0,174.0,-142.0
895,174.0,-1143.0,350.0,875.0,78.0,-128.0
896,132.0,-960.0,354.0,1072.0,75.0,-65.0
897,41.0,-873.0,349.0,1059.0,106.0,-41.0
898,-29.0,-818.0,428.0,948.0,114.0,-75.0
899,-8.0,-1056.0,503.0,631.0,159.0,-161.0
900,32.0,-1075.0,503.0,672.0,116.0,-191.0
901,61.0,-1097.0,500.0,713.0,93.0,-231.0
902,89.0,-1132.0,501.0,757.0,82.0,-264.0
903,167.0,-1208.0,509.0,985.0,117.0,-295.0
904,224.0,-1237.0,503.0,1069.0,132.0,-329.0
905,278.0,-1289.0,508.0,1167.0,171.0,-375.0
906,333.0,-1339.0,508.0,1288.0,229.0,-424.0
907,392.0,-1361.0,490.0,1421.0,305.0,-494.0
908,443.0,-1404.0,480.0,1543.0,397.0,-573.0
909,135.0,-717.0,-483.0,-136.0,152.0,102.0
910,-154.0,-107.0,-393.0,-53.0,318.0,-109.0
911,-131.0,-240.0,-474.0,-487.0,208.0,-132.0
912,-193.0,-223.0,-512.0,-794.0,123.0,0.0
913,-230.0,-183.0,-519.0,-1089.0,23.0,66.0
914,-202.0,-256.0,-529.0,-1423.0,-99.0,107.0
915,-183.0,-265.0,-505.0,-1691.0,-178.0,172.0
916,-154.0,-286.0,-469.0,-1967.0,-224.0,257.0
917,-99.0,-298.0,-427.0,-2257.0,-245.0,334.0
918,-80.0,-352.0,-383.0,-2577.0,-219.0,406.0
919,-54.0,-531.0,-337.0,-2909.0,-197.0,486.0
920,-37.0,-699.0,-261.0,-3135.0,-184.0,561.0
921,-14.0,-777.0,-175.0,-3260.0,-186.0,602.0
922,3.0,-772.0,-100.0,-3379.0,-192.0,607.0
923,35.0,-833.0,-45.0,-3579.0,-200.0,622.0
924,62.0,-1561.0,816.0,-3034.0,176.0,291.0
925,82.0,-1182.0,1291.0,-1213.0,-686.0,184.0
926,-190.0,-1264.0,-676.0,2914.0,-148.0,-557.0
927,-184.0,-974.0,-213.0,3079.0,-116.0,-616.0
928,-188.0,-1159.0,-179.0,3322.0,-182.0,-926.0
929,12.0,-1201.0,-261.0,3757.0,-391.0,-1274.0
930,136.0,-1134.0,-292.0,4149.0,-502.0,-1431.0
931,-38.0,-506.0,229.0,4490.0,-351.0,-1146.0
932,1385.0,827.0,963.0,4336.0,-1218.0,-191.0
933,1034.0,922.0,1786.0,2770.0,-961.0,670.0
934,-1507.0,-481.0,825.0,-205.0,2101.0,1860.0
935,-7.0,-1907.0,-575.0,-1113.0,316.0,418.0
936,-58.0,-774.0,410.0,263.0,130.0,58.0
937,104.0,-959.0,219.0,118.0,81.0,-91.0
938,112.0,-959.0,228.0,125.0,85.0,-58.0
939,106.0,-970.0,227.0,118.0,111.0,-28.0
940,81.0,-960.0,230.0,117.0,148.0,-4.0
941,16.0,-980.0,229.0,118.0,187.0,3.0
942,24.0,-990.0,231.0,125.0,176.0,-20.0
943,45.0,-964.0,238.0,141.0,142.0,-45.0
944,50.0,-956.0,247.0,144.0,116.0,-57.0
945,70.0,-961.0,247.0,143.0,90.0,-69.0
946,75.0,-956.0,246.0,141.0,78.0,-68.0
947,94.0,-899.0,251.0,2.0,-66.0,-13.0
948,74.0,-975.0,268.0,50.0,-74.0,-51.0
949,111.0,-971.0,260.0,53.0,-84.0,-55.0
950,123.0,-963.0,250.0,59.0,-72.0,-46.0
951,106.0,-955.0,258.0,65.0,-58.0,-29.0
952,92.0,-951.0,267.0,66.0,-57.0,-19.0
953,97.0,-952.0,261.0,61.0,-68.0,-9.0
954,115.0,-944.0,256.0,58.0,-87.0,6.0
955,117.0,-934.0,260.0,51.0,-98.0,27.0
956,58.0,-942.0,273.0,46.0,-85.0,41.0
957,50.0,-958.0,274.0,43.0,-106.0,31.0
958,63.0,-991.0,255.0,43.0,-128.0,22.0
959,71.0,-980.0,261.0,53.0,-146.0,24.0
960,82.0,-962.0,275.0,54.0,-164.0,34.0
961,91.0,-976.0,281.0,46.0,-171.0,38.0
962,111.0,-966.0,269.0,41.0,-177.0,52.0
963,124.0,-949.0,266.0,54.0,-183.0,94.0
964,95.0,-1035.0,266.0,231.0,-141.0,220.0
965,119.0,-1008.0,272.0,258.0,-125.0,272.0
966,86.0,-957.0,309.0,267.0,-90.0,308.0
967,18.0,-948.0,321.0,250.0,-61.0,324.0
968,12.0,-957.0,316.0,235.0,-82.0,302.0
969,-36.0,-947.0,320.0,225.0,-89.0,284.0
970,36.0,-922.0,327.0,206.0,-129.0,285.0
971,77.0,-928.0,322.0,168.0,-131.0,260.0
972,121.0,-927.0,334.0,132.0,-114.0,232.0
973,132.0,-928.0,334.0,89.0,-82.0,198.0
974,137.0,-933.0,330.0,43.0,-44.0,179.0
975,121.0,-945.0,328.0,-4.0,-7.0,148.0
976,77.0,-950.0,337.0,-40.0,35.0,112.0
977,17.0,-968.0,340.0,-75.0,52.0,73.0
978,-19.0,-976.0,342.0,-102.0,40.0,60.0
979,-79.0,-988.0,299.0,72.0,-716.0,648.0
980,-111.0,-934.0,354.0,65.0,-766.0,597.0
981,-87.0,-1006.0,334.0,43.0,-824.0,579.0
982,-140.0,-978.0,363.0,53.0,-846.0,642.0
983,-184.0,-858.0,431.0,40.0,-909.0,692.0
984,-292.0,-804.0,513.0,-13.0,-991.0,717.0
985,428.0,-926.0,-529.0,334.0,-4892.0,823.0
986,418.0,-938.0,-516.0,245.0,-4693.0,796.0
987,340.0,-964.0,-501.0,151.0,-4450.0,787.0
988,294.0,-972.0,-471.0,87.0,-4240.0,828.0
989,247.0,-935.0,-434.0,25.0,-4034.0,877.0
990,211.0,-928.0,-400.0,-84.0,-3846.0,891.0
991,126.0,-965.0,-353.0,-209.0,-3679.0,898.0
992,49.0,-1028.0,-317.0,-308.0,-3580.0,931.0
993,-19.0,-1076.0,-294.0,-358.0,-3551.0,973.0
994,-122.0,-1104.0,-272.0,-395.0,-3573.0,999.0
995,605.0,-1000.0,252.0,-656.0,-4359.0,923.0
996,779.0,-1039.0,395.0,-649.0,-4003.0,985.0
997,813.0,-1132.0,574.0,-608.0,-3580.0,1036.0
998,956.0,-1109.0,751.0,-453.0,-3275.0,977.0
999,1258.0,-1043.0,859.0,-265.0,-3044.0,833.0
1000,1417.0,-1005.0,974.0,-97.0,-2685.0,603.0
1001,1326.0,-1104.0,1009.0,81.0,-2255.0,313.0
1002,1036.0,-989.0,1096.0,396.0,-1900.0,32.0
1003,756.0,-909.0,1205.0,612.0,-1669.0,-180.0
1004,649.0,-824.0,1258.0,796.0,-1629.0,-268.0
1005,724.0,-679.0,1229.0,902.0,-1596.0,-320.0
1006,-141.0,-1141.0,226.0,18.0,363.0,234.0
1007,121.0,-936.0,276.0,2.0,-23.0,-29.0
1008,130.0,-939.0,273.0,-9.0,-21.0,-21.0
1009,127.0,-937.0,274.0,-21.0,-9.0,-13.0
1010,110.0,-942.0,275.0,-33.0,5.0,-8.0
1011,102.0,-953.0,280.0,-44.0,13.0,-14.0
1012,124.0,-977.0,262.0,-56.0,12.0,-27.0
1013,144.0,-963.0,256.0,-55.0,23.0,-29.0
1014,126.0,-955.0,264.0,-53.0,47.0,-18.0
1015,102.0,-994.0,252.0,-53.0,66.0,-25.0
1016,139.0,-964.0,262.0,-43.0,63.0,-41.0
1017,137.0,-957.0,263.0,-48.0,75.0,-28.0
1018,118.0,-948.0,276.0,-58.0,93.0,-14.0
1019,110.0,-968.0,273.0,-73.0,99.0,-9.0
1020,141.0,-966.0,261.0,-83.0,92.0,-8.0
1021,82.0,-934.0,274.0,118.0,42.0,15.0
1022,98.0,-1010.0,257.0,125.0,34.0,10.0
1023,128.0,-1046.0,241.0,167.0,22.0,13.0
1024,118.0,-1081.0,252.0,217.0,25.0,37.0
1025,103.0,-1130.0,246.0,277.0,28.0,45.0
1026,95.0,-1115.0,296.0,397.0,9.0,63.0
1027,88.0,-1173.0,311.0,445.0,11.0,69.0
1028,116.0,-1244.0,315.0,517.0,0.0,83.0
1029,60.0,-1312.0,330.0,628.0,23.0,122.0
1030,14.0,-1439.0,348.0,775.0,30.0,187.0
1031,7.0,-1522.0,353.0,976.0,-1.0,308.0
1032,-7.0,-1609.0,356.0,1183.0,-18.0,434.0
1033,-71.0,-1669.0,375.0,1403.0,-17.0,550.0
1034,-8.0,-1714.0,352.0,1584.0,-66.0,435.0
1035,157.0,-18.0,-940.0,-959.0,-812.0,432.0
1036,300.0,-1413.0,462.0,-2252.0,-150.0,225.0
1037,189.0,-1397.0,481.0,-2154.0,-41.0,185.0
1038,131.0,-1392.0,493.0,-2034.0,-15.0,174.0
1039,131.0,-1365.0,514.0,-1872.0,-43.0,152.0
1040,91.0,-1301.0,574.0,-1706.0,-81.0,80.0
1041,59.0,-1336.0,583.0,-1560.0,-113.0,25.0
1042,169.0,-1247.0,528.0,-1390.0,-138.0,45.0
1043,172.0,-1179.0,501.0,-1248.0,-129.0,41.0
1044,166.0,-1150.0,490.0,-1133.0,-123.0,-25.0
1045,72.0,-1152.0,493.0,-993.0,-107.0,-79.0
1046,21.0,-1089.0,479.0,-830.0,-135.0,-112.0
1047,50.0,-837.0,149.0,214.0,159.0,-84.0
1048,-51.0,-557.0,-57.0,548.0,451.0,57.0
1049,-133.0,-389.0,-480.0,192.0,504.0,180.0
1050,-267.0,-725.0,-1007.0,-210.0,571.0,226.0
1051,-236.0,-1448.0,-1405.0,9.0,504.0,132.0
1052,-89.0,-1845.0,-1418.0,1055.0,413.0,-27.0
1053,266.0,-1959.0,-1392.0,1847.0,380.0,-195.0
1054,106.0,-1900.0,-1023.0,2641.0,514.0,-258.0
1055,-359.0,-1280.0,-424.0,2763.0,530.0,-224.0
1056,-366.0,-1483.0,-128.0,2545.0,175.0,-437.0
1057,20.0,-1589.0,-223.0,3001.0,-208.0,-789.0
1058,323.0,-1557.0,-590.0,3814.0,-165.0,-1084.0
1059,78.0,-976.0,207.0,-40.0,135.0,-91.0
1060,77.0,-943.0,225.0,111.0,109.0,-38.0
1061,74.0,-965.0,232.0,87.0,119.0,-69.0
1062,49.0,-992.0,207.0,62.0,129.0,-111.0
1063,47.0,-993.0,202.0,61.0,131.0,-165.0
1064,53.0,-990.0,209.0,76.0,128.0,-223.0
1065,123.0,-977.0,205.0,84.0,114.0,-277.0
1066,130.0,-975.0,203.0,91.0,128.0,-277.0
1067,129.0,-994.0,181.0,93.0,130.0,-257.0
1068,126.0,-980.0,188.0,113.0,109.0,-227.0
1069,141.0,-947.0,221.0,133.0,75.0,-191.0
1070,126.0,-948.0,220.0,127.0,66.0,-151.0
1071,155.0,-942.0,228.0,107.0,46.0,-96.0
1072,87.0,-972.0,245.0,52.0,84.0,56.0
1073,74.0,-960.0,252.0,47.0,103.0,15.0
1074,95.0,-965.0,241.0,37.0,112.0,-24.0
1075,99.0,-969.0,231.0,31.0,119.0,-48.0
1076,93.0,-969.0,251.0,31.0,129.0,-72.0
1077,141.0,-964.0,247.0,24.0,144.0,-108.0
1078,109.0,-977.0,240.0,25.0,196.0,-126.0
1079,102.0,-981.0,244.0,32.0,218.0,-154.0
1080,106.0,-991.0,210.0,38.0,229.0,-176.0
1081,134.0,-968.0,224.0,61.0,217.0,-179.0
1082,144.0,-941.0,243.0,78.0,203.0,-149.0
1083,157.0,-954.0,268.0,223.0,144.0,3.0
1084,109.0,-952.0,277.0,221.0,168.0,17.0
1085,100.0,-949.0,273.0,213.0,169.0,11.0
1086,94.0,-934.0,282.0,208.0,166.0,5.0
1087,92.0,-942.0,275.0,195.0,161.0,-1.0
1088,107.0,-939.0,278.0,188.0,148.0,-4.0
1089,112.0,-947.0,272.0,180.0,143.0,0.0
1090,115.0,-950.0,271.0,175.0,140.0,3.0
1091,110.0,-941.0,284.0,176.0,136.0,11.0
1092,4.0,-991.0,378.0,552.0,262.0,-37.0
1093,98.0,-1065.0,346.0,558.0,219.0,-74.0
1094,186.0,-1087.0,343.0,609.0,192.0,-95.0
1095,197.0,-1129.0,370.0,667.0,199.0,-114.0
1096,286.0,-1091.0,375.0,764.0,180.0,-164.0
1097,287.0,-1058.0,361.0,816.0,232.0,-197.0
1098,158.0,-1307.0,463.0,1056.0,567.0,-378.0
1099,24.0,-1263.0,244.0,2629.0,1185.0,-949.0
1100,-8.0,60.0,-484.0,600.0,773.0,-431.0
1101,-428.0,-428.0,-402.0,-94.0,943.0,-16.0
1102,-197.0,-506.0,-357.0,-240.0,483.0,159.0
1103,-118.0,-117.0,-331.0,-261.0,241.0,-54.0
1104,-282.0,-267.0,-321.0,-624.0,276.0,-111.0
1105,-276.0,-277.0,-329.0,-839.0,82.0,94.0
1106,-234.0,-228.0,-316.0,-1039.0,-94.0,222.0
1107,-161.0,-326.0,-308.0,-1318.0,-218.0,257.0
1108,-45.0,-346.0,-275.0,-1510.0,-302.0,309.0
1109,37.0,-376.0,-226.0,-1710.0,-276.0,352.0
1110,37.0,-441.0,-156.0,-1926.0,-172.0,377.0
1111,4.0,-511.0,-96.0,-2121.0,-81.0,416.0
1112,-98.0,-601.0,-5.0,-2307.0,-29.0,490.0
1113,-165.0,-765.0,75.0,-2474.0,-83.0,580.0
1114,-137.0,-841.0,143.0,-2548.0,-235.0,654.0
1115,559.0,-1284.0,425.0,-2044.0,-1075.0,465.0
1116,538.0,-1254.0,393.0,-2021.0,-923.0,413.0
1117,496.0,-1263.0,364.0,-2019.0,-763.0,387.0
1118,458.0,-1278.0,336.0,-2010.0,-617.0,360.0
1119,421.0,-1265.0,317.0,-1986.0,-500.0,312.0
1120,418.0,-1257.0,307.0,-1963.0,-422.0,260.0
1121,379.0,-1265.0,311.0,-1937.0,-344.0,195.0
1122,339.0,-1243.0,308.0,-1890.0,-276.0,125.0
1123,300.0,-1185.0,319.0,-1845.0,-211.0,78.0
1124,34.0,-1021.0,354.0,-937.0,-264.0,-72.0
1125,88.0,-880.0,151.0,216.0,16.0,-141.0
1126,84.0,-845.0,155.0,239.0,6.0,-162.0
1127,110.0,-921.0,145.0,227.0,-10.0,-158.0
1128,122.0,-935.0,150.0,289.0,5.0,-162.0
1129,82.0,-858.0,173.0,380.0,47.0,-175.0
1130,40.0,-851.0,206.0,404.0,76.0,-167.0
1131,6.0,-946.0,235.0,422.0,86.0,-148.0
1132,-40.0,-911.0,284.0,545.0,89.0,-151.0
1133,-98.0,-910.0,340.0,649.0,63.0,-154.0
1134,-91.0,-959.0,386.0,745.0,-14.0,-144.0
1135,-88.0,-643.0,378.0,888.0,-88.0,-109.0
1136,-71.0,-101.0,146.0,672.0,-119.0,69.0
1137,-253.0,-233.0,-466.0,-292.0,6.0,198.0
1138,-329.0,-1638.0,-1565.0,-1026.0,116.0,-177.0
1139,53.0,-1713.0,-1519.0,4094.0,605.0,-287.0
1140,-26.0,-917.0,264.0,296.0,178.0,-106.0
1141,40.0,-947.0,219.0,272.0,128.0,-168.0
1142,122.0,-941.0,216.0,254.0,90.0,-196.0
1143,110.0,-912.0,233.0,238.0,99.0,-177.0
1144,82.0,-890.0,249.0,210.0,113.0,-147.0
1145,64.0,-887.0,253.0,176.0,120.0,-124.0
1146,62.0,-888.0,268.0,147.0,127.0,-112.0
1147,86.0,-947.0,244.0,116.0,134.0,-117.0
1148,74.0,-956.0,229.0,112.0,142.0,-127.0
1149,29.0,-937.0,240.0,114.0,138.0,-138.0
1150,63.0,-934.0,251.0,104.0,105.0,-171.0
1151,89.0,-966.0,243.0,90.0,101.0,-192.0
1152,87.0,-955.0,242.0,90.0,117.0,-200.0
1153,65.0,-966.0,240.0,86.0,138.0,-212.0
1154,43.0,-963.0,231.0,91.0,144.0,-239.0
1155,75.0,-936.0,262.0,83.0,94.0,-304.0
1156,145.0,-963.0,227.0,-64.0,72.0,-83.0
1157,139.0,-953.0,234.0,-59.0,69.0,-79.0
1158,142.0,-968.0,216.0,-62.0,61.0,-74.0
1159,164.0,-957.0,227.0,-55.0,49.0,-69.0
1160,167.0,-959.0,228.0,-55.0,50.0,-51.0
1161,155.0,-958.0,228.0,-55.0,56.0,-34.0
1162,139.0,-953.0,232.0,-54.0,59.0,-28.0
1163,150.0,-943.0,242.0,-58.0,59.0,-35.0
1164,158.0,-943.0,243.0,-69.0,67.0,-37.0
1165,158.0,-947.0,238.0,-82.0,80.0,-34.0
1166,171.0,-982.0,235.0,-88.0,92.0,-32.0
1167,133.0,-971.0,226.0,-27.0,113.0,-17.0
1168,122.0,-950.0,259.0,135.0,138.0,-57.0
1169,108.0,-961.0,246.0,121.0,154.0,-74.0
1170,97.0,-977.0,211.0,105.0,160.0,-90.0
1171,159.0,-946.0,245.0,107.0,115.0,-84.0
1172,173.0,-955.0,236.0,106.0,104.0,-49.0
1173,146.0,-947.0,248.0,107.0,111.0,-9.0
1174,118.0,-937.0,265.0,107.0,108.0,7.0
1175,129.0,-937.0,262.0,95.0,104.0,-1.0
1176,125.0,-944.0,258.0,81.0,122.0,-9.0
1177,122.0,-945.0,264.0,73.0,127.0,-18.0
1178,121.0,-950.0,263.0,61.0,132.0,-29.0
1179,123.0,-933.0,276.0,148.0,181.0,-7.0
1180,149.0,-1003.0,304.0,501.0,217.0,-114.0
1181,141.0,-997.0,320.0,537.0,238.0,-120.0
1182,121.0,-1014.0,316.0,558.0,238.0,-125.0
1183,84.0,-1045.0,341.0,591.0,228.0,-126.0
1184,76.0,-1145.0,357.0,626.0,207.0,-137.0
1185,146.0,-1177.0,351.0,707.0,147.0,-143.0
1186,215.0,-1103.0,347.0,805.0,112.0,-124.0
1187,197.0,-1109.0,369.0,864.0,127.0,-130.0
1188,164.0,-949.0,353.0,932.0,134.0,-185.0
1189,118.0,-881.0,382.0,889.0,160.0,-247.0
1190,90.0,-817.0,409.0,801.0,173.0,-281.0
1191,93.0,-799.0,410.0,694.0,165.0,-277.0
1192,150.0,-809.0,402.0,595.0,141.0,-279.0
1193,226.0,-831.0,392.0,522.0,155.0,-267.0
1194,274.0,-849.0,399.0,477.0,197.0,-235.0
1195,12.0,-774.0,484.0,659.0,-27.0,-344.0
1196,226.0,-716.0,538.0,286.0,70.0,-223.0
1197,174.0,-747.0,539.0,252.0,95.0,-211.0
1198,168.0,-758.0,555.0,237.0,94.0,-185.0
1199,156.0,-769.0,558.0,227.0,92.0,-157.0
1200,158.0,-775.0,552.0,218.0,82.0,-139.0
1201,168.0,-784.0,562.0,210.0,72.0,-121.0
1202,192.0,-792.0,561.0,210.0,53.0,-103.0
1203,201.0,-797.0,554.0,209.0,46.0,-94.0
1204,221.0,-794.0,550.0,211.0,41.0,-87.0
1205,256.0,-796.0,557.0,210.0,42.0,-71.0
1206,290.0,-800.0,554.0,208.0,55.0,-55.0
1207,64.0,-983.0,616.0,360.0,368.0,64.0
1208,315.0,-951.0,726.0,779.0,263.0,-129.0
1209,284.0,-896.0,735.0,857.0,296.0,-208.0
1210,269.0,-868.0,761.0,874.0,286.0,-305.0
1211,247.0,-886.0,764.0,873.0,235.0,-373.0
1212,316.0,-875.0,703.0,907.0,123.0,-346.0
1213,371.0,-852.0,622.0,917.0,92.0,-317.0
1214,306.0,-821.0,586.0,886.0,173.0,-328.0
1215,185.0,-818.0,565.0,827.0,208.0,-307.0
1216,188.0,-823.0,521.0,756.0,109.0,-254.0
1217,206.0,-776.0,461.0,662.0,31.0,-210.0
1218,140.0,-677.0,-274.0,-1388.0,572.0,410.0
1219,131.0,-689.0,-253.0,-1562.0,632.0,418.0
1220,101.0,-706.0,-224.0,-1734.0,670.0,404.0
1221,102.0,-687.0,-204.0,-1901.0,658.0,389.0
1222,77.0,-711.0,-177.0,-2106.0,639.0,359.0
1223,71.0,-815.0,-140.0,-2326.0,591.0,327.0
1224,37.0,-923.0,-77.0,-2475.0,544.0,309.0
1225,48.0,-973.0,-20.0,-2545.0,458.0,287.0
1226,53.0,-991.0,26.0,-2607.0,365.0,236.0
1227,53.0,-1041.0,65.0,-2700.0,262.0,173.0
1228,80.0,-1111.0,95.0,-2786.0,148.0,121.0
1229,168.0,-1301.0,729.0,-1829.0,-918.0,116.0
1230,181.0,-1260.0,720.0,-1720.0,-941.0,122.0
1231,219.0,-1238.0,703.0,-1608.0,-954.0,123.0
1232,247.0,-1187.0,685.0,-1481.0,-932.0,103.0
1233,249.0,-1127.0,675.0,-1374.0,-885.0,84.0
1234,269.0,-1143.0,668.0,-1299.0,-828.0,81.0
1235,260.0,-1120.0,667.0,-1190.0,-745.0,67.0
1236,230.0,-1081.0,660.0,-1079.0,-660.0,44.0
1237,190.0,-1085.0,691.0,-987.0,-587.0,27.0
1238,-62.0,-832.0,321.0,184.0,-782.0,-7.0
1239,78.0,-1427.0,-680.0,1261.0,-617.0,-202.0
1240,151.0,-1180.0,-263.0,873.0,112.0,-583.0
1241,251.0,-1250.0,-392.0,1142.0,192.0,-603.0
1242,186.0,-1318.0,-404.0,1539.0,317.0,-571.0
1243,52.0,-1343.0,-386.0,2034.0,374.0,-595.0
1244,-96.0,-1308.0,-338.0,2557.0,269.0,-672.0
1245,-132.0,-1071.0,-132.0,3004.0,10.0,-711.0
1246,179.0,-618.0,186.0,3048.0,-434.0,-368.0
1247,1007.0,-253.0,500.0,2547.0,-991.0,465.0
1248,1221.0,-334.0,696.0,1532.0,-739.0,1108.0
1249,66.0,-963.0,216.0,28.0,137.0,-134.0
1250,85.0,-983.0,200.0,26.0,136.0,-139.0
1251,76.0,-974.0,202.0,32.0,132.0,-134.0
1252,69.0,-981.0,208.0,38.0,126.0,-130.0
1253,75.0,-1004.0,200.0,46.0,122.0,-140.0
1254,72.0,-1006.0,194.0,63.0,123.0,-146.0
1255,63.0,-985.0,206.0,82.0,118.0,-150.0
1256,69.0,-973.0,211.0,90.0,114.0,-155.0
1257,76.0,-967.0,213.0,92.0,112.0,-158.0
1258,97.0,-965.0,208.0,95.0,106.0,-152.0
1259,108.0,-965.0,219.0,99.0,101.0,-133.0
1260,84.0,-961.0,232.0,99.0,86.0,-88.0
1261,111.0,-992.0,238.0,74.0,73.0,-93.0
1262,115.0,-951.0,254.0,66.0,57.0,-63.0
1263,117.0,-960.0,250.0,68.0,65.0,-57.0
1264,104.0,-957.0,252.0,72.0,74.0,-55.0
1265,92.0,-960.0,261.0,69.0,78.0,-60.0
1266,98.0,-974.0,250.0,65.0,76.0,-72.0
1267,117.0,-960.0,250.0,69.0,67.0,-77.0
1268,110.0,-942.0,257.0,69.0,69.0,-73.0
1269,109.0,-939.0,259.0,63.0,68.0,-72.0
1270,113.0,-936.0,263.0,53.0,67.0,-71.0
1271,102.0,-946.0,262.0,43.0,71.0,-69.0
1272,106.0,-955.0,255.0,32.0,72.0,-74.0
1273,123.0,-937.0,256.0,24.0,73.0,-66.0
1274,112.0,-949.0,257.0,-39.0,79.0,-27.0
1275,116.0,-992.0,238.0,-30.0,78.0,-35.0
1276,113.0,-967.0,241.0,-18.0,72.0,-37.0
1277,112.0,-952.0,255.0,-12.0,68.0,-38.0
1278,123.0,-951.0,252.0,-15.0,64.0,-40.0
1279,123.0,-951.0,253.0,-17.0,64.0,-34.0
1280,111.0,-952.0,251.0,-19.0,69.0,-30.0
1281,103.0,-953.0,254.0,-21.0,68.0,-35.0
1282,123.0,-955.0,250.0,-24.0,61.0,-43.0
1283,130.0,-959.0,246.0,-25.0,64.0,-41.0
1284,121.0,-959.0,249.0,-25.0,69.0,-36.0
1285,107.0,-963.0,254.0,-26.0,71.0,-39.0
1286,125.0,-955.0,248.0,-42.0,59.0,-49.0
1287,157.0,-955.0,235.0,16.0,52.0,14.0
1288,123.0,-956.0,243.0,22.0,67.0,39.0
1289,120.0,-963.0,240.0,25.0,67.0,39.0
1290,126.0,-963.0,236.0,29.0,63.0,39.0
1291,128.0,-955.0,238.0,33.0,62.0,43.0
1292,125.0,-951.0,246.0,35.0,61.0,51.0
1293,113.0,-964.0,254.0,32.0,63.0,54.0
1294,121.0,-981.0,243.0,29.0,62.0,44.0
1295,102.0,-950.0,252.0,12.0,65.0,-2.0
1296,112.0,-946.0,249.0,10.0,65.0,-7.0
1297,103.0,-943.0,252.0,10.0,70.0,-7.0
1298,106.0,-936.0,252.0,9.0,71.0,-9.0
1299,101.0,-929.0,254.0,8.0,73.0,-11.0
1300,96.0,-934.0,257.0,6.0,75.0,-16.0
1301,107.0,-945.0,255.0,5.0,75.0,-24.0
1302,114.0,-956.0,254.0,4.0,79.0,-27.0
1303,104.0,-976.0,256.0,4.0,88.0,-29.0
1304,97.0,-982.0,248.0,4.0,91.0,-39.0
1305,102.0,-976.0,248.0,7.0,86.0,-47.0
1306,97.0,-962.0,253.0,6.0,79.0,-56.0
1307,111.0,-955.0,256.0,-20.0,87.0,-84.0
1308,112.0,-955.0,252.0,-21.0,86.0,-84.0
1309,123.0,-950.0,250.0,-22.0,82.0,-81.0
1310,126.0,-947.0,251.0,-23.0,83.0,-72.0
1311,125.0,-947.0,253.0,-25.0,85.0,-60.0
1312,128.0,-954.0,254.0,-27.0,86.0,-49.0
1313,117.0,-967.0,255.0,-30.0,92.0,-41.0
1314,117.0,-976.0,248.0,-29.0,90.0,-38.0
1315,117.0,-978.0,245.0,-24.0,87.0,-35.0
1316,125.0,-964.0,249.0,-18.0,80.0,-32.0
1317,129.0,-957.0,250.0,-15.0,79.0,-25.0
1318,106.0,-958.0,256.0,1.0,79.0,-14.0
1319,114.0,-953.0,253.0,1.0,79.0,-20.0
1320,117.0,-952.0,251.0,0.0,78.0,-19.0
1321,112.0,-951.0,254.0,-1.0,80.0,-18.0
1322,108.0,-953.0,255.0,-3.0,80.0,-20.0
1323,106.0,-960.0,256.0,-4.0,79.0,-24.0
1324,101.0,-967.0,252.0,-5.0,78.0,-28.0
1325,119.0,-969.0,249.0,-5.0,71.0,-34.0
1326,130.0,-970.0,248.0,-3.0,70.0,-32.0
1327,121.0,-963.0,252.0,1.0,75.0,-23.0
1328,115.0,-962.0,254.0,2.0,78.0,-21.0
1329,113.0,-960.0,254.0,3.0,79.0,-22.0
1330,109.0,-959.0,253.0,4.0,80.0,-26.0
1331,109.0,-955.0,255.0,5.0,80.0,-28.0
1332,114.0,-952.0,253.0,5.0,77.0,-29.0
1333,121.0,-955.0,251.0,5.0,75.0,-27.0
1334,114.0,-956.0,254.0,15.0,74.0,-28.0
1335,116.0,-958.0,260.0,4.0,68.0,-38.0
1336,114.0,-959.0,257.0,4.0,69.0,-38.0
1337,112.0,-960.0,260.0,5.0,70.0,-40.0
1338,111.0,-964.0,256.0,4.0,69.0,-41.0
1339,119.0,-960.0,254.0,8.0,63.0,-42.0
1340,122.0,-949.0,257.0,13.0,61.0,-36.0
1341,111.0,-961.0,260.0,13.0,62.0,-31.0
1342,111.0,-965.0,258.0,14.0,58.0,-33.0
1343,118.0,-964.0,259.0,16.0,53.0,-32.0
1344,112.0,-959.0,256.0,17.0,54.0,-30.0
1345,126.0,-953.0,256.0,17.0,48.0,-30.0
1346,122.0,-943.0,262.0,5.0,76.0,-33.0
1347,120.0,-955.0,260.0,-10.0,82.0,-30.0
1348,121.0,-954.0,260.0,-8.0,81.0,-28.0
1349,121.0,-957.0,261.0,-6.0,83.0,-26.0
1350,118.0,-960.0,260.0,-5.0,86.0,-24.0
1351,109.0,-959.0,265.0,-3.0,86.0,-23.0
1352,114.0,-962.0,261.0,-3.0,80.0,-23.0
1353,124.0,-961.0,262.0,-2.0,73.0,-19.0
1354,123.0,-958.0,261.0,-1.0,73.0,-8.0
1355,113.0,-958.0,260.0,1.0,72.0,0.0
1356,134.0,-951.0,257.0,4.0,64.0,4.0
1357,115.0,-951.0,262.0,7.0,70.0,17.0
1358,117.0,-950.0,265.0,5.0,67.0,-41.0
1359,124.0,-974.0,258.0,-2.0,58.0,-47.0
1360,131.0,-964.0,259.0,6.0,53.0,-36.0
1361,108.0,-970.0,265.0,11.0,51.0,-26.0
1362,140.0,-964.0,260.0,12.0,35.0,-21.0
1363,121.0,-957.0,260.0,19.0,40.0,-5.0
1364,105.0,-951.0,272.0,23.0,41.0,-2.0
1365,109.0,-959.0,270.0,21.0,39.0,-14.0
1366,114.0,-962.0,267.0,20.0,40.0,-24.0
1367,125.0,-955.0,265.0,19.0,39.0,-29.0
1368,119.0,-953.0,268.0,1.0,66.0,-24.0
1369,115.0,-952.0,272.0,3.0,69.0,-26.0
1370,118.0,-964.0,269.0,4.0,69.0,-30.0
1371,122.0,-960.0,269.0,6.0,65.0,-30.0
1372,115.0,-965.0,268.0,10.0,67.0,-28.0
1373,114.0,-960.0,271.0,14.0,62.0,-28.0
1374,125.0,-958.0,266.0,18.0,54.0,-26.0
1375,126.0,-947.0,267.0,23.0,50.0,-18.0
1376,123.0,-945.0,270.0,24.0,50.0,-9.0
1377,118.0,-942.0,274.0,23.0,51.0,-5.0
1378,117.0,-939.0,274.0,20.0,52.0,-7.0
1379,119.0,-949.0,275.0,-5.0,83.0,-42.0
1380,127.0,-960.0,271.0,-9.0,65.0,-35.0
1381,137.0,-955.0,266.0,-7.0,59.0,-26.0
1382,141.0,-947.0,267.0,-1.0,60.0,-13.0
1383,126.0,-940.0,272.0,3.0,65.0,0.0
1384,120.0,-947.0,274.0,4.0,68.0,1.0
1385,118.0,-955.0,274.0,4.0,69.0,-3.0
1386,119.0,-961.0,270.0,4.0,69.0,-8.0
1387,123.0,-957.0,272.0,7.0,68.0,-13.0
1388,117.0,-954.0,272.0,8.0,69.0,-15.0
1389,119.0,-951.0,274.0,9.0,66.0,-22.0
1390,121.0,-946.0,274.0,7.0,67.0,-26.0
1391,121.0,-948.0,274.0,6.0,69.0,-30.0
1392,120.0,-951.0,273.0,7.0,71.0,-32.0
1393,121.0,-951.0,272.0,6.0,70.0,-35.0
1394,121.0,-954.0,271.0,3.0,56.0,-27.0
1395,119.0,-944.0,277.0,17.0,57.0,-32.0
1396,136.0,-941.0,273.0,17.0,55.0,-32.0
1397,139.0,-938.0,275.0,19.0,59.0,-23.0
1398,130.0,-939.0,273.0,21.0,67.0,-14.0
1399,117.0,-937.0,278.0,22.0,72.0,-8.0
1400,114.0,-941.0,279.0,19.0,73.0,-9.0
1401,115.0,-940.0,279.0,16.0,72.0,-15.0
1402,116.0,-939.0,281.0,12.0,74.0,-22.0
1403,116.0,-940.0,281.0,7.0,75.0,-29.0
1404,119.0,-944.0,281.0,1.0,77.0,-34.0
1405,128.0,-948.0,279.0,-3.0,67.0,-22.0
1406,124.0,-950.0,276.0,-3.0,69.0,-22.0
1407,131.0,-950.0,279.0,-2.0,70.0,-21.0
1408,124.0,-961.0,277.0,0.0,71.0,-17.0
1409,129.0,-956.0,278.0,4.0,68.0,-13.0
1410,127.0,-951.0,279.0,5.0,68.0,-10.0
1411,116.0,-950.0,282.0,3.0,70.0,-11.0
1412,114.0,-951.0,282.0,1.0,70.0,-17.0
1413,118.0,-945.0,280.0,0.0,68.0,-25.0
1414,115.0,-946.0,280.0,-3.0,68.0,-29.0
1415,124.0,-950.0,280.0,-9.0,73.0,-35.0
1416,127.0,-957.0,281.0,-20.0,93.0,-59.0
1417,120.0,-940.0,282.0,-2.0,67.0,-17.0
1418,126.0,-948.0,281.0,-5.0,64.0,-19.0
1419,132.0,-954.0,277.0,-6.0,64.0,-20.0
1420,128.0,-954.0,276.0,-5.0,64.0,-17.0
1421,137.0,-947.0,275.0,-3.0,62.0,-12.0
1422,133.0,-940.0,278.0,-1.0,64.0,-7.0
1423,121.0,-943.0,282.0,-1.0,66.0,-4.0
1424,117.0,-949.0,280.0,-5.0,65.0,-11.0
1425,124.0,-954.0,277.0,-7.0,63.0,-18.0
1426,127.0,-956.0,277.0,-6.0,65.0,-22.0
1427,123.0,-959.0,278.0,-6.0,67.0,-26.0
1428,127.0,-954.0,277.0,-4.0,64.0,-29.0
1429,129.0,-952.0,279.0,-3.0,64.0,-29.0
1430,123.0,-952.0,279.0,-2.0,65.0,-28.0
1431,140.0,-945.0,275.0,-1.0,60.0,-28.0
1432,134.0,-942.0,276.0,0.0,65.0,-20.0
1433,123.0,-945.0,280.0,1.0,67.0,-16.0
1434,122.0,-946.0,279.0,0.0,66.0,-19.0
1435,128.0,-947.0,279.0,-2.0,65.0,-23.0
1436,127.0,-961.0,274.0,-4.0,62.0,-18.0
1437,122.0,-954.0,279.0,-8.0,74.0,-16.0
1438,132.0,-960.0,278.0,-6.0,72.0,-18.0
1439,127.0,-964.0,278.0,-3.0,73.0,-16.0
1440,136.0,-957.0,275.0,1.0,70.0,-13.0
1441,132.0,-951.0,276.0,5.0,71.0,-6.0
1442,129.0,-943.0,281.0,8.0,70.0,-1.0
1443,120.0,-951.0,283.0,7.0,73.0,3.0
1444,123.0,-948.0,281.0,5.0,71.0,2.0
1445,118.0,-953.0,282.0,-1.0,73.0,-11.0
1446,117.0,-950.0,280.0,1.0,70.0,-12.0
1447,120.0,-946.0,281.0,1.0,65.0,-14.0
1448,121.0,-943.0,283.0,1.0,65.0,-15.0
1449,116.0,-953.0,284.0,-2.0,65.0,-16.0
1450,120.0,-959.0,282.0,-3.0,62.0,-18.0
1451,132.0,-956.0,278.0,-1.0,60.0,-19.0
1452,126.0,-948.0,281.0,1.0,65.0,-17.0
1453,116.0,-952.0,284.0,1.0,69.0,-18.0
1454,122.0,-949.0,281.0,2.0,65.0,-23.0
1455,128.0,-951.0,280.0,3.0,64.0,-23.0
1456,117.0,-944.0,285.0,0.0,73.0,-14.0
1457,119.0,-950.0,283.0,-9.0,58.0,-34.0
1458,123.0,-948.0,280.0,-10.0,59.0,-38.0
1459,124.0,-946.0,281.0,-8.0,61.0,-39.0
1460,121.0,-946.0,282.0,-7.0,60.0,-37.0
1461,119.0,-944.0,284.0,-8.0,60.0,-35.0
1462,122.0,-945.0,283.0,-9.0,58.0,-34.0
1463,127.0,-946.0,281.0,-9.0,58.0,-33.0
1464,121.0,-946.0,282.0,-10.0,61.0,-30.0
1465,116.0,-948.0,285.0,-11.0,61.0,-30.0
1466,110.0,-955.0,283.0,-12.0,61.0,-34.0
1467,120.0,-953.0,281.0,-13.0,56.0,-40.0
1468,130.0,-950.0,279.0,-19.0,67.0,-34.0
1469,121.0,-948.0,279.0,-4.0,80.0,-29.0
1470,129.0,-945.0,278.0,-5.0,81.0,-30.0
1471,130.0,-941.0,281.0,-6.0,82.0,-27.0
1472,132.0,-942.0,277.0,-7.0,83.0,-23.0
1473,135.0,-936.0,279.0,-8.0,87.0,-18.0
1474,126.0,-939.0,280.0,-10.0,92.0,-15.0
1475,124.0,-947.0,281.0,-12.0,94.0,-16.0
1476,122.0,-958.0,281.0,-12.0,95.0,-20.0
1477,115.0,-964.0,280.0,-13.0,96.0,-26.0
1478,119.0,-965.0,280.0,-13.0,94.0,-34.0
1479,122.0,-959.0,277.0,-13.0,90.0,-38.0
1480,129.0,-948.0,278.0,-4.0,74.0,-24.0
1481,120.0,-936.0,281.0,9.0,66.0,-33.0
1482,130.0,-939.0,282.0,7.0,64.0,-34.0
1483,130.0,-946.0,282.0,6.0,66.0,-31.0
1484,127.0,-953.0,283.0,6.0,69.0,-28.0
1485,130.0,-961.0,280.0,7.0,70.0,-25.0
1486,134.0,-965.0,280.0,9.0,70.0,-24.0
1487,125.0,-960.0,275.0,13.0,72.0,-20.0
1488,125.0,-957.0,278.0,18.0,70.0,-21.0
1489,126.0,-949.0,283.0,21.0,66.0,-25.0
1490,112.0,-946.0,283.0,19.0,65.0,-27.0
1491,123.0,-944.0,284.0,17.0,60.0,-32.0
1492,124.0,-948.0,284.0,14.0,60.0,-36.0
1493,126.0,-949.0,284.0,11.0,60.0,-40.0
1494,124.0,-944.0,283.0,11.0,62.0,-43.0
1495,126.0,-936.0,284.0,8.0,62.0,-45.0
1496,130.0,-929.0,284.0,-1.0,64.0,-42.0
1497,129.0,-951.0,285.0,-2.0,74.0,-37.0