sequence,AccelerometerX,AccelerometerY,AccelerometerZ,GyroscopeX,GyroscopeY,GyroscopeZ
93,74.0,-977.0,183.0,-2.0,67.0,-18.0
94,76.0,-976.0,182.0,-3.0,66.0,-20.0
95,77.0,-976.0,183.0,-3.0,66.0,-22.0
96,77.0,-975.0,181.0,-2.0,66.0,-22.0
97,74.0,-976.0,183.0,-2.0,66.0,-22.0
98,74.0,-976.0,183.0,-4.0,67.0,-23.0
99,74.0,-976.0,184.0,-4.0,67.0,-26.0
100,77.0,-977.0,181.0,-4.0,66.0,-28.0
101,77.0,-976.0,182.0,-3.0,66.0,-17.0
102,76.0,-977.0,182.0,0.0,65.0,-17.0
103,77.0,-976.0,182.0,-2.0,66.0,-20.0
104,74.0,-977.0,182.0,-2.0,67.0,-19.0
105,76.0,-976.0,182.0,-1.0,66.0,-20.0
106,76.0,-976.0,182.0,-2.0,66.0,-20.0
107,75.0,-976.0,183.0,-3.0,66.0,-20.0
108,76.0,-977.0,183.0,-3.0,66.0,-20.0
109,75.0,-976.0,182.0,-3.0,65.0,-21.0
110,76.0,-977.0,183.0,-3.0,66.0,-22.0
111,76.0,-977.0,182.0,-2.0,66.0,-22.0
112,76.0,-977.0,182.0,-1.0,65.0,-22.0
113,76.0,-976.0,184.0,-1.0,66.0,-21.0
114,76.0,-977.0,182.0,-1.0,66.0,-19.0
115,75.0,-978.0,183.0,-1.0,65.0,-19.0
116,75.0,-976.0,185.0,-1.0,65.0,-18.0
117,75.0,-977.0,183.0,-2.0,65.0,-19.0
118,76.0,-977.0,183.0,-1.0,66.0,-18.0
119,75.0,-976.0,184.0,0.0,66.0,-18.0
120,75.0,-976.0,184.0,0.0,66.0,-18.0
121,75.0,-977.0,183.0,1.0,66.0,-17.0
122,76.0,-976.0,185.0,1.0,66.0,-17.0
123,73.0,-976.0,186.0,1.0,66.0,-16.0
124,74.0,-976.0,185.0,0.0,66.0,-18.0
125,75.0,-976.0,184.0,1.0,66.0,-21.0
126,75.0,-977.0,184.0,0.0,66.0,-21.0
127,76.0,-977.0,184.0,-1.0,66.0,-20.0
128,74.0,-976.0,184.0,0.0,67.0,-20.0
129,75.0,-977.0,185.0,0.0,66.0,-20.0
130,75.0,-976.0,184.0,-1.0,65.0,-18.0
131,72.0,-975.0,188.0,1.0,66.0,-17.0
132,73.0,-977.0,185.0,-1.0,65.0,-17.0
133,70.0,-977.0,187.0,-1.0,66.0,-17.0
134,70.0,-975.0,187.0,0.0,66.0,-18.0
135,71.0,-975.0,187.0,0.0,67.0,-20.0
136,71.0,-975.0,188.0,0.0,67.0,-20.0
137,70.0,-975.0,188.0,-1.0,67.0,-20.0
138,72.0,-975.0,187.0,-1.0,67.0,-21.0
139,72.0,-976.0,188.0,-2.0,67.0,-21.0
140,72.0,-978.0,187.0,-3.0,67.0,-20.0
141,71.0,-977.0,188.0,-3.0,67.0,-19.0
142,68.0,-976.0,189.0,3.0,67.0,-17.0
143,70.0,-976.0,188.0,1.0,67.0,-19.0
144,70.0,-974.0,188.0,1.0,66.0,-19.0
145,69.0,-976.0,188.0,1.0,67.0,-20.0
146,69.0,-975.0,189.0,2.0,66.0,-20.0
147,71.0,-975.0,189.0,2.0,66.0,-20.0
148,70.0,-975.0,189.0,1.0,67.0,-20.0
149,70.0,-975.0,189.0,1.0,67.0,-20.0
150,69.0,-975.0,189.0,0.0,67.0,-21.0
151,69.0,-975.0,191.0,-1.0,66.0,-21.0
152,70.0,-977.0,189.0,-4.0,66.0,-24.0
153,71.0,-976.0,189.0,-4.0,66.0,-24.0
154,71.0,-975.0,189.0,-4.0,66.0,-23.0
155,71.0,-976.0,189.0,-4.0,65.0,-22.0
156,72.0,-975.0,189.0,-4.0,66.0,-21.0
157,70.0,-975.0,190.0,-4.0,66.0,-20.0
158,69.0,-975.0,190.0,-4.0,67.0,-19.0
159,67.0,-976.0,191.0,-4.0,68.0,-20.0
160,68.0,-976.0,188.0,-5.0,67.0,-23.0
161,70.0,-975.0,189.0,-5.0,67.0,-23.0
162,70.0,-976.0,188.0,-4.0,67.0,-22.0
163,69.0,-976.0,190.0,-5.0,66.0,-24.0
164,69.0,-977.0,189.0,-6.0,66.0,-25.0
165,69.0,-977.0,188.0,-7.0,67.0,-25.0
166,70.0,-977.0,189.0,-5.0,67.0,-25.0
167,68.0,-977.0,188.0,-5.0,67.0,-25.0
168,69.0,-977.0,188.0,-4.0,66.0,-26.0
169,69.0,-975.0,190.0,-4.0,66.0,-27.0
170,70.0,-975.0,191.0,-6.0,66.0,-26.0
171,69.0,-976.0,189.0,-5.0,66.0,-24.0
172,69.0,-975.0,190.0,-5.0,66.0,-24.0
173,70.0,-976.0,189.0,-6.0,66.0,-25.0
174,71.0,-977.0,189.0,-6.0,65.0,-24.0
175,70.0,-976.0,190.0,-5.0,65.0,-23.0
176,70.0,-975.0,190.0,-5.0,66.0,-23.0
177,69.0,-976.0,188.0,-4.0,66.0,-23.0
178,69.0,-975.0,189.0,-4.0,66.0,-23.0
179,70.0,-976.0,188.0,-5.0,66.0,-25.0
180,70.0,-976.0,189.0,-5.0,66.0,-25.0
181,69.0,-976.0,190.0,-5.0,66.0,-25.0
182,70.0,-976.0,190.0,-5.0,66.0,-24.0
183,70.0,-975.0,190.0,-5.0,67.0,-25.0
184,70.0,-975.0,189.0,-6.0,67.0,-26.0
185,70.0,-976.0,189.0,-7.0,67.0,-27.0
186,71.0,-975.0,189.0,-7.0,67.0,-26.0
187,72.0,-976.0,190.0,-7.0,66.0,-25.0
188,70.0,-976.0,189.0,-6.0,66.0,-23.0
189,69.0,-976.0,189.0,-6.0,66.0,-23.0
190,70.0,-977.0,189.0,-6.0,68.0,-24.0
191,71.0,-975.0,188.0,-6.0,68.0,-25.0
192,71.0,-975.0,189.0,-6.0,67.0,-24.0
193,70.0,-977.0,189.0,-7.0,67.0,-25.0
194,71.0,-976.0,188.0,-6.0,67.0,-26.0
195,72.0,-975.0,189.0,-6.0,68.0,-25.0
196,70.0,-975.0,189.0,-7.0,67.0,-24.0
197,71.0,-975.0,190.0,-8.0,66.0,-24.0
198,69.0,-975.0,189.0,-8.0,67.0,-24.0
199,71.0,-975.0,189.0,-8.0,68.0,-26.0
200,71.0,-976.0,189.0,-9.0,67.0,-27.0
201,72.0,-976.0,186.0,-8.0,66.0,-26.0
202,72.0,-975.0,188.0,-3.0,68.0,-21.0
203,72.0,-975.0,190.0,-3.0,68.0,-21.0
204,71.0,-975.0,190.0,-3.0,69.0,-21.0
205,69.0,-976.0,189.0,-4.0,69.0,-21.0
206,71.0,-974.0,191.0,-3.0,70.0,-24.0
207,72.0,-977.0,188.0,-6.0,70.0,-23.0
208,71.0,-975.0,190.0,-5.0,68.0,-21.0
209,71.0,-975.0,190.0,-6.0,69.0,-21.0
210,71.0,-975.0,189.0,-6.0,68.0,-21.0
211,71.0,-974.0,189.0,-6.0,68.0,-22.0
212,73.0,-975.0,189.0,-7.0,68.0,-22.0
213,72.0,-975.0,187.0,-7.0,69.0,-22.0
214,71.0,-976.0,189.0,-4.0,67.0,-26.0
215,71.0,-976.0,188.0,-5.0,68.0,-26.0
216,71.0,-978.0,188.0,-4.0,68.0,-27.0
217,71.0,-977.0,189.0,-3.0,69.0,-27.0
218,72.0,-976.0,188.0,-3.0,67.0,-27.0
219,72.0,-975.0,189.0,-4.0,68.0,-27.0
220,73.0,-974.0,190.0,-4.0,68.0,-26.0
221,73.0,-977.0,185.0,-6.0,69.0,-25.0
222,71.0,-976.0,188.0,-5.0,68.0,-23.0
223,72.0,-976.0,187.0,-5.0,69.0,-22.0
224,72.0,-976.0,189.0,-6.0,69.0,-23.0
225,72.0,-976.0,188.0,-5.0,69.0,-21.0
226,72.0,-976.0,187.0,-4.0,70.0,-21.0
227,72.0,-975.0,188.0,-3.0,70.0,-20.0
228,72.0,-974.0,191.0,-3.0,69.0,-20.0
229,70.0,-975.0,190.0,-4.0,68.0,-20.0
230,71.0,-976.0,187.0,-5.0,67.0,-20.0
231,73.0,-975.0,189.0,-5.0,67.0,-20.0
232,70.0,-976.0,188.0,-5.0,67.0,-19.0
233,71.0,-975.0,188.0,-4.0,67.0,-20.0
234,72.0,-976.0,187.0,-4.0,66.0,-21.0
235,72.0,-976.0,187.0,-4.0,68.0,-23.0
236,70.0,-976.0,188.0,-1.0,67.0,-20.0
237,70.0,-977.0,189.0,-1.0,66.0,-21.0
238,71.0,-977.0,188.0,0.0,66.0,-21.0
239,70.0,-975.0,189.0,2.0,67.0,-20.0
240,71.0,-976.0,189.0,2.0,66.0,-20.0
241,71.0,-976.0,190.0,3.0,68.0,-19.0
242,72.0,-976.0,189.0,4.0,67.0,-18.0
243,70.0,-975.0,190.0,3.0,67.0,-16.0
244,71.0,-977.0,189.0,1.0,68.0,-16.0
245,72.0,-975.0,191.0,1.0,69.0,-15.0
246,70.0,-975.0,188.0,0.0,69.0,-14.0
247,68.0,-976.0,191.0,-3.0,67.0,-16.0
248,70.0,-977.0,188.0,-3.0,67.0,-16.0
249,70.0,-981.0,185.0,1.0,69.0,-17.0
250,75.0,-977.0,188.0,6.0,68.0,-15.0
251,74.0,-976.0,188.0,11.0,70.0,-11.0
252,75.0,-977.0,188.0,16.0,69.0,-4.0
253,73.0,-976.0,191.0,19.0,72.0,2.0
254,72.0,-981.0,187.0,18.0,73.0,7.0
255,73.0,-980.0,189.0,20.0,75.0,12.0
256,66.0,-975.0,195.0,21.0,80.0,22.0
257,66.0,-976.0,195.0,18.0,80.0,24.0
258,66.0,-974.0,196.0,15.0,81.0,25.0
259,67.0,-974.0,194.0,11.0,82.0,26.0
260,64.0,-975.0,193.0,9.0,82.0,28.0
261,66.0,-974.0,193.0,8.0,82.0,29.0
262,60.0,-973.0,194.0,8.0,83.0,29.0
263,60.0,-972.0,197.0,8.0,82.0,28.0
264,58.0,-973.0,198.0,4.0,80.0,26.0
265,57.0,-973.0,194.0,-29.0,74.0,-58.0
266,61.0,-977.0,193.0,-32.0,73.0,-60.0
267,63.0,-979.0,190.0,-33.0,73.0,-59.0
268,66.0,-979.0,189.0,-34.0,72.0,-55.0
269,66.0,-978.0,187.0,-33.0,72.0,-48.0
270,69.0,-978.0,188.0,-30.0,71.0,-41.0
271,69.0,-978.0,188.0,-28.0,72.0,-33.0
272,63.0,-976.0,189.0,-27.0,74.0,-26.0
273,59.0,-978.0,190.0,-27.0,74.0,-25.0
274,65.0,-979.0,184.0,-36.0,70.0,-45.0
275,63.0,-979.0,181.0,-36.0,72.0,-45.0
276,64.0,-979.0,183.0,-33.0,73.0,-47.0
277,67.0,-976.0,184.0,-30.0,72.0,-47.0
278,69.0,-977.0,183.0,-28.0,71.0,-45.0
279,70.0,-978.0,185.0,-28.0,72.0,-41.0
280,67.0,-978.0,184.0,-29.0,74.0,-37.0
281,65.0,-978.0,183.0,-30.0,74.0,-36.0
282,62.0,-978.0,184.0,-31.0,74.0,-37.0
283,63.0,-977.0,184.0,-32.0,74.0,-42.0
284,66.0,-978.0,183.0,-33.0,72.0,-45.0
285,73.0,-976.0,174.0,-25.0,61.0,-58.0
286,75.0,-978.0,176.0,-11.0,57.0,-47.0
287,75.0,-977.0,177.0,-10.0,56.0,-45.0
288,76.0,-977.0,175.0,-9.0,55.0,-45.0
289,77.0,-978.0,175.0,-8.0,54.0,-45.0
290,79.0,-978.0,175.0,-7.0,56.0,-43.0
291,81.0,-979.0,174.0,-7.0,57.0,-39.0
292,81.0,-981.0,172.0,-6.0,59.0,-34.0
293,79.0,-978.0,174.0,-4.0,61.0,-30.0
294,78.0,-979.0,174.0,-4.0,62.0,-27.0
295,80.0,-978.0,172.0,-1.0,63.0,-25.0
296,81.0,-974.0,177.0,4.0,64.0,-22.0
297,82.0,-975.0,173.0,6.0,63.0,-17.0
298,80.0,-976.0,175.0,9.0,64.0,-10.0
299,71.0,-977.0,175.0,10.0,64.0,-4.0
300,79.0,-978.0,176.0,12.0,60.0,-4.0
301,69.0,-978.0,185.0,-11.0,61.0,20.0
302,64.0,-1000.0,174.0,-99.0,104.0,10.0
303,60.0,-1002.0,174.0,-105.0,105.0,3.0
304,53.0,-1003.0,181.0,-112.0,106.0,-9.0
305,57.0,-1009.0,176.0,-122.0,102.0,-24.0
306,61.0,-1009.0,172.0,-127.0,100.0,-38.0
307,64.0,-1012.0,167.0,-128.0,99.0,-47.0
308,69.0,-1022.0,161.0,-127.0,97.0,-50.0
309,64.0,-1028.0,160.0,-121.0,99.0,-53.0
310,67.0,-1028.0,152.0,-110.0,99.0,-57.0
311,62.0,-1025.0,149.0,-92.0,103.0,-60.0
312,61.0,-1010.0,148.0,-71.0,105.0,-67.0
313,176.0,-896.0,-41.0,-30.0,293.0,-114.0
314,-55.0,-875.0,-12.0,-163.0,1458.0,-310.0
315,-56.0,-893.0,-32.0,-246.0,1385.0,-277.0
316,-50.0,-918.0,-37.0,-312.0,1306.0,-253.0
317,-42.0,-946.0,-27.0,-362.0,1231.0,-246.0
318,-27.0,-949.0,-8.0,-386.0,1162.0,-244.0
319,10.0,-967.0,9.0,-410.0,1106.0,-227.0
320,50.0,-977.0,30.0,-424.0,1078.0,-206.0
321,87.0,-983.0,47.0,-435.0,1072.0,-204.0
322,87.0,-1000.0,57.0,-442.0,1093.0,-216.0
323,49.0,-1003.0,71.0,-431.0,1119.0,-230.0
324,22.0,-1005.0,89.0,-417.0,1121.0,-236.0
325,92.0,-891.0,174.0,-110.0,988.0,-132.0
326,94.0,-850.0,299.0,111.0,718.0,-339.0
327,33.0,-867.0,230.0,-9.0,606.0,-332.0
328,-54.0,-925.0,115.0,-103.0,442.0,-348.0
329,8.0,-1032.0,-33.0,-113.0,186.0,-393.0
330,176.0,-1152.0,-139.0,18.0,-21.0,-419.0
331,304.0,-1152.0,-139.0,272.0,-57.0,-365.0
332,302.0,-1108.0,-79.0,496.0,19.0,-235.0
333,277.0,-1054.0,-1.0,623.0,71.0,-80.0
334,73.0,-957.0,222.0,242.0,-25.0,46.0
335,128.0,-971.0,212.0,196.0,-35.0,-3.0
336,138.0,-986.0,188.0,154.0,-12.0,-18.0
337,83.0,-994.0,194.0,123.0,15.0,-28.0
338,79.0,-998.0,181.0,95.0,28.0,-80.0
339,85.0,-997.0,173.0,85.0,48.0,-149.0
340,90.0,-975.0,189.0,86.0,60.0,-202.0
341,110.0,-968.0,195.0,69.0,67.0,-236.0
342,118.0,-975.0,194.0,47.0,73.0,-255.0
343,142.0,-994.0,177.0,35.0,72.0,-261.0
344,149.0,-1005.0,156.0,41.0,78.0,-250.0
345,134.0,-989.0,183.0,21.0,129.0,-69.0
346,149.0,-968.0,201.0,50.0,137.0,9.0
347,157.0,-984.0,184.0,52.0,139.0,21.0
348,158.0,-975.0,184.0,72.0,140.0,41.0
349,130.0,-972.0,189.0,89.0,139.0,66.0
350,126.0,-962.0,202.0,101.0,131.0,68.0
351,134.0,-956.0,206.0,96.0,129.0,66.0
352,130.0,-954.0,215.0,88.0,131.0,70.0
353,132.0,-951.0,219.0,74.0,133.0,70.0
354,131.0,-950.0,219.0,57.0,139.0,68.0
355,122.0,-951.0,219.0,41.0,148.0,67.0
356,112.0,-959.0,214.0,25.0,157.0,58.0
357,103.0,-978.0,203.0,-26.0,165.0,50.0
358,113.0,-974.0,205.0,-18.0,155.0,48.0
359,114.0,-980.0,199.0,-10.0,152.0,52.0
360,105.0,-987.0,192.0,3.0,151.0,57.0
361,104.0,-980.0,201.0,22.0,142.0,60.0
362,106.0,-967.0,209.0,32.0,134.0,63.0
363,92.0,-967.0,215.0,34.0,133.0,65.0
364,94.0,-973.0,203.0,31.0,127.0,61.0
365,108.0,-988.0,211.0,77.0,129.0,94.0
366,109.0,-986.0,205.0,86.0,137.0,98.0
367,96.0,-994.0,191.0,102.0,147.0,106.0
368,85.0,-973.0,222.0,133.0,150.0,108.0
369,76.0,-980.0,225.0,134.0,151.0,101.0
370,92.0,-975.0,224.0,131.0,148.0,92.0
371,94.0,-975.0,225.0,133.0,154.0,93.0
372,91.0,-977.0,226.0,133.0,166.0,94.0
373,95.0,-977.0,222.0,137.0,174.0,94.0
374,50.0,-1067.0,256.0,185.0,219.0,201.0
375,34.0,-1065.0,263.0,216.0,217.0,185.0
376,10.0,-1061.0,274.0,268.0,215.0,157.0
377,9.0,-1059.0,281.0,312.0,185.0,120.0
378,10.0,-1072.0,286.0,364.0,163.0,80.0
379,19.0,-1102.0,289.0,433.0,144.0,41.0
380,24.0,-1111.0,293.0,527.0,130.0,14.0
381,35.0,-1096.0,286.0,623.0,111.0,0.0
382,14.0,-1050.0,293.0,700.0,110.0,-9.0
383,19.0,-1027.0,312.0,761.0,89.0,-49.0
384,-198.0,-645.0,107.0,-1034.0,1445.0,-363.0
385,-136.0,-644.0,122.0,-1058.0,1120.0,-288.0
386,-108.0,-647.0,110.0,-1095.0,863.0,-321.0
387,-40.0,-681.0,84.0,-1149.0,637.0,-371.0
388,11.0,-688.0,75.0,-1171.0,472.0,-410.0
389,31.0,-713.0,71.0,-1201.0,370.0,-477.0
390,-49.0,-739.0,104.0,-1223.0,316.0,-539.0
391,-127.0,-780.0,150.0,-1237.0,250.0,-576.0
392,-177.0,-811.0,207.0,-1229.0,183.0,-584.0
393,-197.0,-882.0,274.0,-1210.0,130.0,-577.0
394,-173.0,-1026.0,353.0,-1152.0,105.0,-581.0
395,-425.0,-1047.0,475.0,-159.0,59.0,15.0
396,166.0,-1072.0,219.0,62.0,108.0,22.0
397,-24.0,-970.0,273.0,79.0,199.0,133.0
398,-26.0,-969.0,273.0,74.0,178.0,94.0
399,-46.0,-968.0,272.0,73.0,157.0,54.0
400,-55.0,-954.0,281.0,71.0,122.0,9.0
401,-54.0,-951.0,280.0,61.0,84.0,-40.0
402,-29.0,-941.0,277.0,53.0,49.0,-88.0
403,3.0,-926.0,283.0,45.0,24.0,-117.0
404,34.0,-925.0,276.0,28.0,12.0,-119.0
405,59.0,-934.0,273.0,11.0,18.0,-98.0
406,63.0,-960.0,263.0,-3.0,37.0,-64.0
407,60.0,-972.0,260.0,-6.0,59.0,-29.0
408,36.0,-968.0,265.0,-21.0,75.0,-18.0
409,28.0,-972.0,265.0,-21.0,85.0,-5.0
410,19.0,-974.0,265.0,-20.0,90.0,1.0
411,11.0,-974.0,267.0,-19.0,91.0,1.0
412,11.0,-970.0,267.0,-17.0,86.0,-3.0
413,10.0,-970.0,266.0,-16.0,82.0,-10.0
414,10.0,-965.0,268.0,-14.0,76.0,-14.0
415,9.0,-964.0,268.0,-14.0,72.0,-18.0
416,8.0,-967.0,265.0,-14.0,70.0,-22.0
417,12.0,-966.0,266.0,-10.0,67.0,-27.0
418,18.0,-970.0,264.0,-9.0,65.0,-30.0
419,24.0,-963.0,266.0,-4.0,64.0,-24.0
420,15.0,-960.0,268.0,-9.0,73.0,-16.0
421,12.0,-963.0,266.0,-10.0,74.0,-16.0
422,13.0,-963.0,267.0,-11.0,74.0,-18.0
423,10.0,-963.0,265.0,-10.0,73.0,-18.0
424,10.0,-963.0,266.0,-8.0,72.0,-19.0
425,11.0,-963.0,267.0,-8.0,70.0,-21.0
426,14.0,-963.0,265.0,-8.0,69.0,-23.0
427,18.0,-962.0,265.0,-8.0,70.0,-21.0
428,15.0,-963.0,265.0,-9.0,72.0,-17.0
429,14.0,-963.0,265.0,-9.0,72.0,-16.0
430,16.0,-965.0,265.0,-9.0,71.0,-16.0
431,9.0,-963.0,265.0,-6.0,72.0,-12.0
432,9.0,-966.0,266.0,1.0,69.0,-12.0
433,10.0,-964.0,266.0,2.0,69.0,-14.0
434,11.0,-962.0,267.0,2.0,68.0,-14.0
435,8.0,-958.0,268.0,2.0,70.0,-14.0
436,5.0,-957.0,268.0,1.0,70.0,-16.0
437,7.0,-959.0,267.0,0.0,69.0,-19.0
438,9.0,-961.0,267.0,0.0,68.0,-22.0
439,11.0,-960.0,266.0,0.0,68.0,-20.0
440,12.0,-963.0,266.0,0.0,67.0,-19.0
441,14.0,-964.0,265.0,0.0,67.0,-15.0
442,11.0,-962.0,266.0,1.0,67.0,-12.0
443,10.0,-959.0,267.0,-6.0,66.0,-23.0
444,8.0,-964.0,266.0,-5.0,70.0,-22.0
445,6.0,-963.0,267.0,-5.0,70.0,-23.0
446,10.0,-960.0,265.0,-4.0,70.0,-24.0
447,8.0,-959.0,266.0,-4.0,70.0,-24.0
448,7.0,-958.0,268.0,-5.0,71.0,-23.0
449,6.0,-958.0,267.0,-6.0,70.0,-25.0
450,6.0,-960.0,267.0,-7.0,70.0,-27.0
451,11.0,-960.0,267.0,-7.0,69.0,-28.0
452,11.0,-960.0,266.0,-7.0,69.0,-26.0
453,10.0,-958.0,267.0,-7.0,70.0,-23.0
454,4.0,-958.0,266.0,-7.0,70.0,-22.0
455,7.0,-965.0,264.0,-9.0,65.0,-35.0
456,10.0,-964.0,264.0,-7.0,64.0,-37.0
457,13.0,-962.0,264.0,-5.0,63.0,-36.0
458,13.0,-961.0,265.0,-5.0,62.0,-34.0
459,9.0,-959.0,267.0,-4.0,63.0,-32.0
460,7.0,-958.0,266.0,-5.0,64.0,-32.0
461,8.0,-957.0,266.0,-6.0,62.0,-35.0
462,13.0,-957.0,265.0,-8.0,61.0,-37.0
463,14.0,-958.0,266.0,-9.0,61.0,-34.0
464,14.0,-964.0,264.0,-9.0,61.0,-31.0
465,12.0,-968.0,264.0,-9.0,63.0,-29.0
466,13.0,-963.0,264.0,-6.0,65.0,-27.0
467,13.0,-959.0,266.0,-9.0,61.0,-32.0
468,12.0,-962.0,263.0,-11.0,62.0,-35.0
469,15.0,-963.0,265.0,-9.0,61.0,-37.0
470,17.0,-963.0,263.0,-8.0,60.0,-37.0
471,12.0,-961.0,265.0,-7.0,62.0,-36.0
472,0.0,-956.0,267.0,-6.0,62.0,-41.0
473,-9.0,-959.0,266.0,-6.0,59.0,-54.0
474,-13.0,-966.0,265.0,-5.0,53.0,-75.0
475,-7.0,-951.0,271.0,0.0,44.0,-99.0
476,32.0,-989.0,258.0,-19.0,61.0,-43.0
477,43.0,-981.0,256.0,-15.0,58.0,-49.0
478,47.0,-980.0,257.0,-11.0,57.0,-45.0
479,46.0,-984.0,257.0,-10.0,62.0,-36.0
480,46.0,-975.0,257.0,-8.0,63.0,-30.0
481,48.0,-973.0,258.0,-8.0,63.0,-22.0
482,41.0,-976.0,259.0,-9.0,67.0,-14.0
483,45.0,-978.0,263.0,-11.0,68.0,-10.0
484,33.0,-984.0,266.0,-16.0,72.0,-6.0
485,53.0,-988.0,260.0,-22.0,66.0,-6.0
486,22.0,-1010.0,255.0,-24.0,76.0,0.0
487,12.0,-1005.0,255.0,-9.0,52.0,-26.0
488,25.0,-960.0,248.0,1087.0,-144.0,-76.0
489,-193.0,-752.0,406.0,620.0,-205.0,-464.0
490,-346.0,-823.0,367.0,531.0,-393.0,-385.0
491,-324.0,-568.0,128.0,530.0,-633.0,-53.0
492,-501.0,-182.0,-352.0,294.0,-838.0,257.0
493,-726.0,-118.0,-588.0,-359.0,-1333.0,452.0
494,-241.0,-483.0,-765.0,-1058.0,-2243.0,503.0
495,142.0,-569.0,-886.0,-1329.0,-2698.0,521.0
496,471.0,-457.0,-937.0,-1541.0,-2735.0,438.0
497,505.0,-583.0,-889.0,-1936.0,-2405.0,349.0
498,477.0,-701.0,-824.0,-2200.0,-2004.0,441.0
499,307.0,-533.0,-689.0,-2324.0,-1614.0,465.0
500,320.0,-1214.0,249.0,-1337.0,-791.0,12.0
501,246.0,-1073.0,154.0,292.0,99.0,-277.0
502,236.0,-916.0,202.0,501.0,245.0,-351.0
503,242.0,-873.0,244.0,594.0,345.0,-418.0
504,320.0,-861.0,308.0,625.0,398.0,-440.0
505,388.0,-822.0,348.0,622.0,478.0,-445.0
506,409.0,-731.0,328.0,570.0,578.0,-394.0
507,433.0,-799.0,187.0,391.0,647.0,-267.0
508,397.0,-950.0,17.0,228.0,721.0,-143.0
509,356.0,-1073.0,-144.0,160.0,790.0,-59.0
510,294.0,-1162.0,-335.0,160.0,882.0,7.0
511,89.0,-1329.0,-556.0,215.0,955.0,39.0
512,305.0,-936.0,86.0,527.0,225.0,-554.0
513,298.0,-963.0,33.0,343.0,41.0,21.0
514,314.0,-923.0,77.0,386.0,24.0,50.0
515,349.0,-895.0,70.0,387.0,-3.0,107.0
516,326.0,-865.0,83.0,381.0,28.0,170.0
517,256.0,-856.0,139.0,354.0,89.0,191.0
518,245.0,-910.0,124.0,268.0,121.0,162.0
519,212.0,-933.0,117.0,221.0,145.0,127.0
520,262.0,-933.0,90.0,201.0,122.0,91.0
521,237.0,-940.0,115.0,175.0,156.0,51.0
522,254.0,-951.0,115.0,143.0,132.0,142.0
523,197.0,-948.0,149.0,106.0,176.0,91.0
524,192.0,-956.0,150.0,56.0,164.0,33.0
525,215.0,-969.0,133.0,9.0,141.0,-16.0
526,250.0,-951.0,132.0,-21.0,127.0,-48.0
527,266.0,-945.0,126.0,-50.0,123.0,-52.0
528,275.0,-943.0,116.0,-73.0,126.0,-47.0
529,275.0,-922.0,132.0,-79.0,133.0,-38.0
530,268.0,-942.0,113.0,-97.0,137.0,-22.0
531,273.0,-951.0,97.0,-93.0,135.0,-10.0
532,281.0,-919.0,119.0,-64.0,128.0,11.0
533,257.0,-955.0,130.0,0.0,67.0,49.0
534,266.0,-949.0,123.0,58.0,61.0,-65.0
535,262.0,-963.0,115.0,48.0,64.0,-61.0
536,256.0,-960.0,122.0,47.0,66.0,-61.0
537,269.0,-965.0,108.0,47.0,61.0,-51.0
538,283.0,-953.0,109.0,66.0,47.0,-33.0
539,271.0,-951.0,101.0,83.0,51.0,-9.0
540,273.0,-944.0,114.0,101.0,54.0,10.0
541,312.0,-939.0,111.0,117.0,49.0,44.0
542,274.0,-930.0,132.0,151.0,49.0,103.0
543,273.0,-948.0,130.0,170.0,32.0,145.0
544,247.0,-973.0,105.0,193.0,24.0,175.0
545,208.0,-1224.0,181.0,819.0,221.0,-366.0
546,21.0,-1492.0,253.0,1848.0,261.0,-988.0
547,108.0,-1615.0,319.0,1985.0,209.0,-1091.0
548,74.0,-1503.0,301.0,2246.0,223.0,-1227.0
549,138.0,-1420.0,194.0,2410.0,184.0,-1296.0
550,95.0,-1354.0,195.0,2509.0,190.0,-1347.0
551,96.0,-1317.0,222.0,2577.0,164.0,-1349.0
552,158.0,-1304.0,273.0,2646.0,121.0,-1275.0
553,198.0,-1253.0,272.0,2731.0,105.0,-1161.0
554,236.0,-1201.0,237.0,2781.0,68.0,-1027.0
555,184.0,-403.0,-218.0,-528.0,486.0,727.0
556,132.0,-196.0,-251.0,-640.0,553.0,875.0
557,162.0,-112.0,-323.0,-975.0,618.0,1088.0
558,141.0,-183.0,-363.0,-1398.0,756.0,1350.0
559,86.0,-278.0,-384.0,-1740.0,893.0,1560.0
560,74.0,-317.0,-408.0,-1980.0,970.0,1714.0
561,74.0,-339.0,-422.0,-2201.0,1037.0,1837.0
562,93.0,-396.0,-427.0,-2434.0,1082.0,1940.0
563,18.0,-489.0,-383.0,-2665.0,1133.0,1963.0
564,-4.0,-552.0,-355.0,-2856.0,1072.0,1925.0
565,30.0,-620.0,-341.0,-3036.0,931.0,1900.0
566,62.0,-732.0,-323.0,-3210.0,815.0,1851.0
567,78.0,-833.0,-287.0,-3323.0,698.0,1738.0
568,121.0,-880.0,-251.0,-3387.0,554.0,1563.0
569,75.0,-816.0,-173.0,-3462.0,427.0,1364.0
570,249.0,-1396.0,633.0,-3048.0,-224.0,831.0
571,313.0,-1060.0,911.0,49.0,-359.0,-180.0
572,90.0,-993.0,661.0,254.0,-247.0,-156.0
573,79.0,-925.0,409.0,398.0,-294.0,-144.0
574,119.0,-859.0,260.0,505.0,-349.0,-198.0
575,223.0,-1038.0,179.0,571.0,-373.0,-288.0
576,436.0,-774.0,111.0,806.0,-326.0,-664.0
577,570.0,-560.0,66.0,809.0,-188.0,-928.0
578,547.0,-709.0,-22.0,599.0,-15.0,-796.0
579,528.0,-848.0,-156.0,523.0,116.0,-571.0
580,405.0,-1062.0,-346.0,530.0,243.0,-347.0
581,226.0,-1466.0,-650.0,733.0,363.0,-219.0
582,385.0,-799.0,153.0,855.0,32.0,-291.0
583,250.0,-984.0,97.0,422.0,46.0,292.0
584,184.0,-1017.0,104.0,391.0,134.0,254.0
585,154.0,-1031.0,109.0,365.0,181.0,173.0
586,124.0,-1009.0,112.0,342.0,200.0,89.0
587,79.0,-964.0,141.0,324.0,206.0,6.0
588,102.0,-927.0,157.0,296.0,165.0,-72.0
589,148.0,-882.0,160.0,272.0,124.0,-119.0
590,139.0,-863.0,162.0,250.0,121.0,-126.0
591,108.0,-862.0,185.0,225.0,117.0,-137.0
592,149.0,-901.0,156.0,188.0,88.0,-154.0
593,234.0,-943.0,153.0,144.0,93.0,-106.0
594,215.0,-942.0,168.0,139.0,96.0,-81.0
595,216.0,-966.0,152.0,120.0,95.0,-75.0
596,232.0,-991.0,149.0,118.0,92.0,-79.0
597,236.0,-950.0,132.0,136.0,94.0,-75.0
598,216.0,-970.0,158.0,121.0,92.0,-78.0
599,203.0,-968.0,172.0,127.0,94.0,-87.0
600,212.0,-962.0,173.0,115.0,93.0,-99.0
601,183.0,-960.0,186.0,99.0,102.0,-112.0
602,169.0,-975.0,182.0,85.0,95.0,-138.0
603,208.0,-995.0,160.0,84.0,72.0,-166.0
604,224.0,-1033.0,200.0,186.0,208.0,-220.0
605,507.0,-1247.0,125.0,316.0,418.0,-527.0
606,559.0,-1352.0,181.0,587.0,564.0,-514.0
607,506.0,-1455.0,204.0,717.0,633.0,-525.0
608,480.0,-1538.0,197.0,866.0,684.0,-558.0
609,430.0,-1592.0,194.0,1036.0,740.0,-625.0
610,332.0,-1597.0,192.0,1214.0,799.0,-707.0
611,171.0,-1566.0,215.0,1382.0,845.0,-793.0
612,80.0,-1530.0,254.0,1538.0,826.0,-866.0
613,-7.0,-1506.0,285.0,1665.0,781.0,-952.0
614,-48.0,-1517.0,312.0,1779.0,694.0,-1047.0
615,26.0,-208.0,322.0,2321.0,197.0,-1118.0
616,-43.0,-156.0,216.0,1810.0,7.0,-919.0
617,21.0,-24.0,-16.0,1313.0,-202.0,-571.0
618,282.0,38.0,-263.0,682.0,-325.0,-127.0
619,-12.0,-246.0,-224.0,-359.0,178.0,578.0
620,142.0,-176.0,-346.0,-614.0,98.0,666.0
621,46.0,-359.0,-324.0,-971.0,291.0,802.0
622,-73.0,-437.0,-276.0,-1100.0,432.0,996.0
623,-36.0,-253.0,-296.0,-1103.0,375.0,1170.0
624,-39.0,-198.0,-325.0,-1317.0,363.0,1293.0
625,-68.0,-309.0,-344.0,-1625.0,360.0,1406.0
626,-104.0,-310.0,-314.0,-1835.0,322.0,1491.0
627,-174.0,-360.0,-258.0,-2086.0,245.0,1556.0
628,584.0,-1493.0,315.0,-2915.0,-358.0,953.0
629,150.0,-1309.0,633.0,-1757.0,-43.0,37.0
630,108.0,-1063.0,772.0,-413.0,264.0,-354.0
631,86.0,-1162.0,784.0,-256.0,189.0,-366.0
632,182.0,-1228.0,792.0,62.0,88.0,-389.0
633,217.0,-1178.0,819.0,477.0,61.0,-426.0
634,240.0,-1047.0,857.0,883.0,48.0,-448.0
635,197.0,-982.0,918.0,1125.0,51.0,-397.0
636,210.0,-1006.0,916.0,1241.0,-11.0,-359.0
637,264.0,-858.0,688.0,1257.0,-91.0,-383.0
638,258.0,-978.0,283.0,1113.0,-91.0,-379.0
639,103.0,-1109.0,-142.0,1056.0,-67.0,-404.0
640,-28.0,-1385.0,-559.0,1066.0,-76.0,-561.0
641,422.0,-853.0,71.0,512.0,-133.0,179.0
642,236.0,-918.0,105.0,94.0,57.0,-202.0
643,275.0,-932.0,88.0,69.0,106.0,-20.0
644,260.0,-946.0,84.0,65.0,98.0,-40.0
645,267.0,-950.0,80.0,58.0,81.0,-76.0
646,278.0,-967.0,74.0,46.0,73.0,-114.0
647,295.0,-956.0,74.0,41.0,71.0,-147.0
648,307.0,-938.0,83.0,39.0,73.0,-164.0
649,298.0,-949.0,95.0,26.0,80.0,-171.0
650,293.0,-951.0,101.0,10.0,77.0,-186.0
651,322.0,-950.0,75.0,-3.0,60.0,-196.0
652,335.0,-950.0,63.0,6.0,50.0,-179.0
653,337.0,-942.0,67.0,25.0,44.0,-153.0
654,335.0,-951.0,69.0,35.0,30.0,-114.0
655,225.0,-961.0,154.0,223.0,102.0,252.0
656,204.0,-1004.0,142.0,163.0,101.0,188.0
657,231.0,-979.0,139.0,135.0,84.0,116.0
658,259.0,-972.0,135.0,112.0,71.0,70.0
659,270.0,-970.0,127.0,100.0,68.0,50.0
660,269.0,-950.0,141.0,106.0,62.0,42.0
661,280.0,-949.0,134.0,99.0,55.0,46.0
662,269.0,-943.0,139.0,102.0,53.0,60.0
663,271.0,-940.0,145.0,99.0,51.0,64.0
664,281.0,-944.0,136.0,89.0,50.0,68.0
665,258.0,-952.0,144.0,82.0,63.0,71.0
666,331.0,-1327.0,186.0,1489.0,626.0,-625.0
667,-113.0,-589.0,-64.0,889.0,-630.0,222.0
668,-106.0,-609.0,-65.0,709.0,-653.0,329.0
669,-104.0,-565.0,-94.0,588.0,-653.0,386.0
670,-49.0,-459.0,-154.0,456.0,-636.0,454.0
671,-74.0,-463.0,-157.0,241.0,-541.0,571.0
672,-131.0,-479.0,-128.0,36.0,-443.0,707.0
673,-135.0,-537.0,-117.0,-160.0,-402.0,832.0
674,-140.0,-591.0,-94.0,-315.0,-378.0,924.0
675,-159.0,-627.0,-66.0,-433.0,-380.0,997.0
676,-125.0,-757.0,-7.0,-821.0,-706.0,1182.0
677,367.0,-1104.0,293.0,-533.0,-1979.0,633.0
678,370.0,-1038.0,291.0,-460.0,-2105.0,542.0
679,476.0,-999.0,262.0,-429.0,-2248.0,496.0
680,552.0,-1034.0,223.0,-419.0,-2317.0,444.0
681,542.0,-1004.0,221.0,-345.0,-2310.0,338.0
682,550.0,-932.0,216.0,-265.0,-2308.0,264.0
683,576.0,-943.0,222.0,-249.0,-2294.0,224.0
684,576.0,-965.0,254.0,-208.0,-2247.0,175.0
685,581.0,-956.0,292.0,-127.0,-2198.0,107.0
686,629.0,-924.0,309.0,-54.0,-2157.0,50.0
687,685.0,-929.0,308.0,-8.0,-2089.0,7.0
688,695.0,-890.0,290.0,54.0,-1975.0,-52.0
689,652.0,-827.0,299.0,99.0,-1842.0,-100.0
690,655.0,-879.0,347.0,95.0,-1733.0,-121.0
691,650.0,-949.0,405.0,135.0,-1621.0,-184.0
692,218.0,-1206.0,81.0,12.0,46.0,413.0
693,200.0,-1012.0,136.0,-81.0,62.0,-413.0
694,237.0,-994.0,114.0,14.0,23.0,-92.0
695,238.0,-994.0,115.0,49.0,20.0,-35.0
696,242.0,-980.0,127.0,78.0,19.0,17.0
697,233.0,-986.0,118.0,84.0,37.0,61.0
698,169.0,-971.0,155.0,96.0,72.0,83.0
699,132.0,-965.0,168.0,76.0,90.0,59.0
700,119.0,-969.0,169.0,45.0,89.0,11.0
701,126.0,-954.0,182.0,27.0,78.0,-35.0
702,139.0,-961.0,175.0,-2.0,67.0,-74.0
703,165.0,-967.0,159.0,-26.0,56.0,-103.0
704,134.0,-968.0,164.0,-35.0,57.0,-120.0
705,193.0,-977.0,128.0,-34.0,16.0,-137.0
706,193.0,-961.0,155.0,20.0,27.0,4.0
707,188.0,-967.0,153.0,6.0,24.0,-5.0
708,185.0,-970.0,152.0,-5.0,19.0,-20.0
709,180.0,-967.0,156.0,-10.0,12.0,-38.0
710,208.0,-978.0,139.0,-24.0,-8.0,-57.0
711,194.0,-987.0,140.0,-27.0,-17.0,-64.0
712,210.0,-992.0,140.0,-30.0,-32.0,-78.0
713,217.0,-1017.0,124.0,-40.0,-45.0,-89.0
714,220.0,-1024.0,125.0,-37.0,-51.0,-92.0
715,196.0,-1035.0,137.0,-37.0,-56.0,-95.0
716,66.0,-1215.0,245.0,1503.0,-427.0,1212.0
717,1.0,-1228.0,269.0,1546.0,-469.0,1235.0
718,-6.0,-1244.0,249.0,1570.0,-561.0,1172.0
719,52.0,-1293.0,192.0,1598.0,-653.0,1152.0
720,114.0,-1288.0,171.0,1668.0,-685.0,1186.0
721,254.0,-1363.0,132.0,1729.0,-658.0,1128.0
722,208.0,-940.0,243.0,1879.0,-523.0,985.0
723,-76.0,-989.0,306.0,1602.0,-414.0,769.0
724,-249.0,-1041.0,250.0,1381.0,-527.0,733.0
725,-746.0,-1020.0,-922.0,-436.0,-3924.0,2232.0
726,-234.0,-954.0,-1035.0,-456.0,-4727.0,2029.0
727,-65.0,-911.0,-1084.0,-495.0,-4910.0,1868.0
728,97.0,-891.0,-1122.0,-621.0,-4992.0,1841.0
729,147.0,-907.0,-1112.0,-744.0,-4913.0,1804.0
730,157.0,-914.0,-1074.0,-840.0,-4811.0,1791.0
731,75.0,-873.0,-999.0,-916.0,-4728.0,1756.0
732,-60.0,-904.0,-914.0,-1041.0,-4754.0,1698.0
733,-143.0,-1024.0,-846.0,-1169.0,-4950.0,1647.0
734,1959.0,-936.0,177.0,-392.0,-4881.0,497.0
735,-226.0,-1030.0,381.0,497.0,200.0,240.0
736,256.0,-967.0,99.0,-36.0,-61.0,-627.0
737,329.0,-925.0,139.0,17.0,-90.0,-517.0
738,272.0,-956.0,134.0,26.0,-91.0,-372.0
739,260.0,-989.0,105.0,41.0,-108.0,-263.0
740,236.0,-1000.0,102.0,71.0,-112.0,-178.0
741,202.0,-1007.0,104.0,92.0,-91.0,-120.0
742,183.0,-997.0,121.0,110.0,-75.0,-91.0
743,166.0,-968.0,147.0,119.0,-71.0,-79.0
744,133.0,-917.0,230.0,103.0,-72.0,-83.0
745,146.0,-916.0,216.0,7.0,-66.0,-123.0
746,164.0,-966.0,157.0,-88.0,-42.0,-170.0
747,182.0,-978.0,139.0,-112.0,-54.0,-185.0
748,170.0,-969.0,153.0,-119.0,-43.0,-180.0
749,189.0,-986.0,110.0,-148.0,-29.0,-190.0
750,190.0,-964.0,136.0,-141.0,-12.0,-198.0
751,219.0,-969.0,101.0,-54.0,144.0,3.0
752,217.0,-983.0,93.0,-40.0,151.0,17.0
753,201.0,-982.0,105.0,-9.0,153.0,49.0
754,208.0,-993.0,99.0,-9.0,150.0,55.0
755,212.0,-991.0,100.0,-2.0,152.0,60.0
756,222.0,-989.0,88.0,3.0,153.0,72.0
757,232.0,-967.0,107.0,17.0,162.0,91.0
758,215.0,-951.0,128.0,19.0,172.0,112.0
759,193.0,-943.0,134.0,5.0,173.0,122.0
760,194.0,-945.0,126.0,-8.0,158.0,120.0
761,181.0,-939.0,126.0,-13.0,153.0,121.0
762,188.0,-972.0,101.0,46.0,166.0,121.0
763,153.0,-967.0,128.0,12.0,63.0,-16.0
764,164.0,-967.0,120.0,-2.0,63.0,6.0
765,165.0,-979.0,119.0,-1.0,60.0,2.0
766,162.0,-986.0,118.0,4.0,53.0,5.0
767,169.0,-993.0,113.0,9.0,46.0,8.0
768,187.0,-991.0,116.0,19.0,41.0,22.0
769,196.0,-993.0,110.0,36.0,28.0,59.0
770,209.0,-994.0,103.0,65.0,9.0,111.0
771,226.0,-990.0,100.0,102.0,-7.0,169.0
772,238.0,-982.0,96.0,136.0,-15.0,232.0
773,185.0,-973.0,100.0,160.0,-2.0,283.0
774,137.0,-964.0,159.0,153.0,20.0,266.0
775,97.0,-973.0,138.0,34.0,80.0,-33.0
776,111.0,-944.0,167.0,-18.0,44.0,-228.0
777,172.0,-979.0,152.0,43.0,13.0,-128.0
778,187.0,-972.0,153.0,24.0,10.0,-122.0
779,181.0,-969.0,148.0,5.0,17.0,-109.0
780,179.0,-965.0,151.0,-8.0,20.0,-98.0
781,178.0,-964.0,152.0,-19.0,21.0,-91.0
782,167.0,-975.0,147.0,-34.0,23.0,-88.0
783,181.0,-978.0,137.0,-46.0,22.0,-93.0
784,196.0,-977.0,131.0,-52.0,28.0,-91.0
785,198.0,-978.0,130.0,-53.0,36.0,-80.0
786,190.0,-971.0,146.0,-35.0,71.0,-15.0
787,101.0,-1619.0,144.0,796.0,-273.0,-451.0
788,116.0,-1615.0,139.0,1144.0,-287.0,-467.0
789,124.0,-1627.0,115.0,1457.0,-219.0,-440.0
790,120.0,-1273.0,181.0,1703.0,-149.0,-489.0
791,56.0,-1585.0,167.0,1555.0,-94.0,-698.0
792,29.0,-1333.0,127.0,1734.0,-78.0,-723.0
793,219.0,-1166.0,158.0,1751.0,-17.0,-724.0
794,-611.0,-1460.0,179.0,1597.0,392.0,-643.0
795,-378.0,-1040.0,-54.0,1837.0,-13.0,-264.0
796,-138.0,-602.0,-282.0,1859.0,-379.0,-27.0
797,-442.0,-440.0,-392.0,1497.0,-532.0,188.0
798,-185.0,-297.0,-1036.0,439.0,-1371.0,607.0
799,5.0,-460.0,-1024.0,7.0,-1415.0,722.0
800,68.0,-473.0,-967.0,-250.0,-1240.0,783.0
801,-1.0,-405.0,-944.0,-507.0,-975.0,859.0
802,-181.0,-457.0,-908.0,-841.0,-752.0,1007.0
803,-318.0,-568.0,-826.0,-1164.0,-680.0,1124.0
804,-325.0,-665.0,-746.0,-1394.0,-759.0,1229.0
805,-232.0,-741.0,-679.0,-1575.0,-893.0,1288.0
806,-89.0,-823.0,-617.0,-1723.0,-1004.0,1319.0
807,92.0,-880.0,-563.0,-1838.0,-1060.0,1329.0
808,233.0,-979.0,-494.0,-1954.0,-1021.0,1331.0
809,751.0,-1002.0,129.0,-1547.0,45.0,487.0
810,595.0,-1037.0,197.0,-1662.0,535.0,509.0
811,380.0,-1146.0,319.0,-1745.0,928.0,552.0
812,233.0,-1205.0,439.0,-1681.0,1115.0,513.0
813,151.0,-1226.0,534.0,-1529.0,1101.0,415.0
814,109.0,-1261.0,555.0,-1332.0,979.0,301.0
815,112.0,-1190.0,459.0,-1075.0,816.0,183.0
816,94.0,-1048.0,337.0,-853.0,672.0,84.0
817,62.0,-1011.0,227.0,-743.0,541.0,17.0
818,51.0,-1007.0,173.0,-659.0,434.0,-37.0
819,76.0,-1706.0,337.0,581.0,114.0,-213.0
820,289.0,-557.0,456.0,1589.0,-60.0,-363.0
821,199.0,-785.0,381.0,1361.0,74.0,-265.0
822,128.0,-917.0,172.0,1173.0,135.0,-234.0
823,-22.0,-1262.0,-304.0,1143.0,180.0,-285.0
824,-402.0,-1768.0,-928.0,1289.0,260.0,-525.0
825,-306.0,-1959.0,-1499.0,1689.0,43.0,-935.0
826,-373.0,-1497.0,-856.0,2593.0,438.0,-1259.0
827,66.0,-1189.0,-78.0,2079.0,-301.0,-1437.0
828,599.0,-1053.0,550.0,1646.0,-404.0,-1433.0
829,652.0,-865.0,498.0,1485.0,94.0,-1162.0
830,240.0,-968.0,32.0,316.0,84.0,-164.0
831,286.0,-963.0,39.0,149.0,75.0,-56.0
832,217.0,-970.0,80.0,119.0,75.0,73.0
833,214.0,-975.0,78.0,135.0,70.0,87.0
834,237.0,-974.0,76.0,165.0,53.0,111.0
835,255.0,-966.0,58.0,201.0,38.0,146.0
836,154.0,-947.0,145.0,216.0,57.0,135.0
837,194.0,-967.0,106.0,154.0,38.0,83.0
838,139.0,-970.0,130.0,127.0,83.0,51.0
839,157.0,-976.0,111.0,88.0,88.0,-17.0
840,184.0,-964.0,117.0,58.0,101.0,-72.0
841,177.0,-971.0,109.0,24.0,121.0,-103.0
842,197.0,-964.0,119.0,9.0,125.0,-130.0
843,195.0,-967.0,106.0,-3.0,124.0,-136.0
844,205.0,-971.0,90.0,-8.0,113.0,-134.0
845,229.0,-959.0,103.0,12.0,92.0,-118.0
846,239.0,-958.0,100.0,24.0,80.0,-95.0
847,241.0,-959.0,108.0,51.0,116.0,-76.0
848,232.0,-950.0,130.0,83.0,129.0,-75.0
849,208.0,-956.0,137.0,84.0,139.0,-66.0
850,220.0,-961.0,141.0,78.0,133.0,-65.0
851,246.0,-975.0,111.0,61.0,132.0,-53.0
852,241.0,-976.0,98.0,73.0,145.0,-32.0
853,218.0,-969.0,114.0,95.0,144.0,-17.0
854,187.0,-977.0,121.0,98.0,135.0,-18.0
855,192.0,-994.0,112.0,91.0,118.0,-39.0
856,212.0,-989.0,110.0,100.0,107.0,-62.0
857,233.0,-986.0,109.0,106.0,107.0,-76.0
858,310.0,-1268.0,104.0,509.0,202.0,-179.0
859,251.0,-1242.0,148.0,881.0,202.0,-545.0
860,287.0,-1340.0,124.0,925.0,146.0,-599.0
861,357.0,-1379.0,113.0,1007.0,149.0,-739.0
862,448.0,-1320.0,115.0,1098.0,197.0,-839.0
863,424.0,-1393.0,163.0,1153.0,322.0,-798.0
864,368.0,-1425.0,200.0,1251.0,424.0,-770.0
865,290.0,-1436.0,212.0,1366.0,501.0,-769.0
866,199.0,-1464.0,218.0,1478.0,544.0,-815.0
867,113.0,-1484.0,221.0,1597.0,544.0,-867.0
868,290.0,-1126.0,106.0,2964.0,104.0,-1078.0
869,212.0,-185.0,-394.0,-1433.0,372.0,980.0
870,111.0,-840.0,-217.0,-3255.0,-92.0,1953.0
871,94.0,-862.0,-127.0,-3174.0,-49.0,1826.0
872,83.0,-903.0,-89.0,-3137.0,-52.0,1765.0
873,109.0,-941.0,-87.0,-3135.0,-96.0,1735.0
874,90.0,-1025.0,-54.0,-3173.0,-117.0,1700.0
875,110.0,-1172.0,-21.0,-3208.0,-182.0,1675.0
876,179.0,-1250.0,17.0,-3169.0,-269.0,1631.0
877,277.0,-1306.0,46.0,-3126.0,-341.0,1563.0
878,327.0,-1353.0,86.0,-3091.0,-376.0,1477.0
879,383.0,-1431.0,109.0,-3057.0,-403.0,1395.0
880,419.0,-1456.0,129.0,-2983.0,-391.0,1311.0
881,442.0,-1444.0,133.0,-2911.0,-348.0,1227.0
882,409.0,-1438.0,149.0,-2877.0,-291.0,1148.0
883,354.0,-1481.0,167.0,-2885.0,-236.0,1102.0
884,324.0,-1445.0,182.0,-2875.0,-201.0,1091.0
885,374.0,-1354.0,171.0,-2921.0,-177.0,1111.0
886,472.0,-1416.0,159.0,-3089.0,-132.0,1167.0
887,615.0,-1568.0,168.0,-3210.0,-25.0,1220.0
888,662.0,-1684.0,230.0,-3173.0,192.0,1197.0
889,112.0,-1168.0,663.0,-841.0,538.0,-252.0
890,-12.0,-914.0,334.0,36.0,-117.0,-289.0
891,484.0,-960.0,600.0,1375.0,-305.0,-1164.0
892,733.0,-946.0,345.0,1084.0,45.0,-1062.0
893,280.0,-1015.0,0.0,920.0,662.0,-902.0
894,192.0,-1015.0,-149.0,872.0,656.0,-833.0
895,197.0,-985.0,-169.0,916.0,541.0,-813.0
896,209.0,-985.0,-182.0,988.0,464.0,-803.0
897,259.0,-998.0,-170.0,1052.0,429.0,-791.0
898,242.0,-1015.0,-172.0,1108.0,439.0,-766.0
899,320.0,-904.0,81.0,565.0,17.0,284.0
900,238.0,-906.0,121.0,521.0,50.0,309.0
901,199.0,-908.0,146.0,454.0,54.0,276.0
902,168.0,-925.0,150.0,376.0,63.0,208.0
903,184.0,-943.0,149.0,302.0,78.0,122.0
904,175.0,-963.0,135.0,242.0,98.0,51.0
905,199.0,-974.0,112.0,204.0,91.0,-11.0
906,262.0,-955.0,100.0,192.0,74.0,-33.0
907,242.0,-942.0,118.0,194.0,74.0,-10.0
908,267.0,-931.0,112.0,184.0,52.0,12.0
909,290.0,-923.0,112.0,177.0,41.0,47.0
910,267.0,-927.0,153.0,116.0,45.0,63.0
911,265.0,-972.0,132.0,83.0,107.0,-62.0
912,269.0,-974.0,132.0,115.0,108.0,-28.0
913,268.0,-957.0,147.0,147.0,109.0,2.0
914,256.0,-956.0,152.0,159.0,119.0,28.0
915,255.0,-959.0,154.0,159.0,127.0,48.0
916,261.0,-962.0,145.0,160.0,141.0,66.0
917,238.0,-957.0,156.0,172.0,165.0,84.0
918,205.0,-957.0,168.0,172.0,186.0,86.0
919,180.0,-962.0,167.0,160.0,194.0,73.0
920,168.0,-975.0,163.0,149.0,191.0,47.0
921,191.0,-981.0,158.0,135.0,180.0,17.0
922,322.0,-1498.0,211.0,1423.0,156.0,-828.0
923,-120.0,-1329.0,217.0,2325.0,747.0,-1363.0
924,414.0,-742.0,290.0,2227.0,43.0,-610.0
925,424.0,-636.0,293.0,2204.0,56.0,-610.0
926,352.0,-510.0,295.0,2101.0,134.0,-637.0
927,253.0,-377.0,255.0,1900.0,170.0,-611.0
928,151.0,-242.0,186.0,1586.0,157.0,-507.0
929,97.0,-197.0,89.0,1140.0,80.0,-357.0
930,83.0,-288.0,50.0,651.0,-2.0,-207.0
931,428.0,-197.0,-155.0,276.0,-130.0,-50.0
932,496.0,-64.0,-332.0,-155.0,162.0,189.0
933,196.0,-246.0,-374.0,-706.0,769.0,518.0
934,-61.0,-544.0,-286.0,-1065.0,1121.0,854.0
935,179.0,-1006.0,-51.0,-2804.0,-409.0,1315.0
936,156.0,-1016.0,-10.0,-2862.0,-548.0,1266.0
937,109.0,-1150.0,18.0,-3005.0,-712.0,1194.0
938,20.0,-1361.0,101.0,-3121.0,-899.0,1099.0
939,68.0,-1567.0,181.0,-3104.0,-1157.0,1034.0
940,211.0,-1633.0,234.0,-2922.0,-1371.0,995.0
941,352.0,-1590.0,248.0,-2696.0,-1461.0,940.0
942,461.0,-1452.0,239.0,-2520.0,-1445.0,888.0
943,434.0,-1155.0,458.0,-1488.0,-289.0,204.0
944,398.0,-1205.0,498.0,-1415.0,-167.0,199.0
945,349.0,-1168.0,524.0,-1267.0,-95.0,153.0
946,317.0,-1136.0,538.0,-1125.0,-85.0,124.0
947,223.0,-1124.0,519.0,-984.0,-122.0,81.0
948,100.0,-1079.0,479.0,-822.0,-235.0,26.0
949,14.0,-1055.0,439.0,-676.0,-430.0,-22.0
950,37.0,-1017.0,381.0,-530.0,-678.0,-61.0
951,107.0,-970.0,328.0,-397.0,-887.0,-104.0
952,193.0,-911.0,311.0,-290.0,-1034.0,-150.0
953,212.0,-886.0,360.0,-235.0,-1104.0,-159.0
954,450.0,-743.0,465.0,1148.0,-30.0,-835.0
955,167.0,-957.0,65.0,847.0,209.0,-798.0
956,159.0,-1040.0,-119.0,801.0,222.0,-839.0
957,117.0,-1080.0,-156.0,891.0,265.0,-855.0
958,65.0,-1042.0,-129.0,1035.0,294.0,-898.0
959,103.0,-969.0,-13.0,1143.0,207.0,-920.0
960,267.0,-933.0,-3.0,1140.0,44.0,-868.0
961,292.0,-880.0,13.0,1107.0,-3.0,-714.0
962,370.0,-756.0,171.0,1043.0,-78.0,-492.0
963,311.0,-898.0,106.0,670.0,-56.0,-61.0
964,170.0,-957.0,119.0,-21.0,197.0,-64.0
965,159.0,-958.0,126.0,-41.0,194.0,-83.0
966,172.0,-974.0,108.0,-64.0,183.0,-110.0
967,186.0,-972.0,101.0,-71.0,169.0,-123.0
968,180.0,-976.0,95.0,-67.0,164.0,-123.0
969,180.0,-968.0,95.0,-54.0,148.0,-124.0
970,173.0,-963.0,113.0,-48.0,132.0,-128.0
971,186.0,-968.0,100.0,-59.0,115.0,-142.0
972,207.0,-972.0,87.0,-67.0,110.0,-150.0
973,211.0,-964.0,96.0,-68.0,122.0,-156.0
974,218.0,-974.0,91.0,-76.0,134.0,-164.0
975,213.0,-980.0,83.0,-78.0,154.0,-168.0
976,211.0,-968.0,111.0,50.0,-22.0,-160.0
977,257.0,-954.0,91.0,47.0,-80.0,-157.0
978,266.0,-941.0,103.0,47.0,-77.0,-146.0
979,256.0,-948.0,104.0,39.0,-66.0,-135.0
980,254.0,-951.0,107.0,31.0,-64.0,-129.0
981,255.0,-955.0,103.0,25.0,-63.0,-127.0
982,251.0,-962.0,105.0,24.0,-60.0,-125.0
983,255.0,-963.0,98.0,27.0,-64.0,-122.0
984,234.0,-967.0,92.0,33.0,-66.0,-117.0
985,226.0,-966.0,99.0,41.0,-81.0,-120.0
986,230.0,-980.0,92.0,45.0,-97.0,-135.0
987,220.0,-982.0,98.0,56.0,-113.0,-147.0
988,258.0,-957.0,105.0,72.0,-143.0,-152.0
989,256.0,-969.0,105.0,74.0,-150.0,-143.0
990,260.0,-980.0,97.0,84.0,-157.0,-136.0
991,246.0,-982.0,95.0,103.0,-168.0,-128.0
992,240.0,-1021.0,126.0,144.0,-298.0,-59.0
993,250.0,-1045.0,116.0,173.0,-314.0,-41.0
994,272.0,-1033.0,105.0,223.0,-316.0,-9.0
995,233.0,-1058.0,114.0,281.0,-297.0,33.0
996,227.0,-1050.0,132.0,366.0,-310.0,97.0
997,210.0,-1042.0,125.0,451.0,-341.0,184.0
998,219.0,-1039.0,123.0,541.0,-384.0,308.0
999,181.0,-1026.0,122.0,637.0,-388.0,492.0
1000,232.0,-991.0,116.0,721.0,-424.0,675.0
1001,100.0,-1049.0,116.0,774.0,-399.0,814.0
1002,27.0,-1057.0,164.0,855.0,-447.0,1014.0
1003,-484.0,-859.0,206.0,128.0,-526.0,1453.0
1004,493.0,-950.0,-456.0,-386.0,-5709.0,807.0
1005,505.0,-1017.0,-359.0,-552.0,-5535.0,838.0
1006,504.0,-1196.0,-261.0,-671.0,-5390.0,877.0
1007,484.0,-1295.0,-189.0,-602.0,-5259.0,864.0
1008,346.0,-1270.0,-148.0,-410.0,-5161.0,751.0
1009,282.0,-1146.0,-160.0,-229.0,-5218.0,616.0
1010,313.0,-1119.0,-178.0,-128.0,-5348.0,540.0
1011,439.0,-989.0,-235.0,-6.0,-5489.0,491.0
1012,573.0,-887.0,-289.0,59.0,-5566.0,385.0
1013,155.0,-839.0,833.0,258.0,-231.0,53.0
1014,116.0,-881.0,490.0,3.0,-174.0,205.0
1015,3.0,-1017.0,95.0,-176.0,-143.0,232.0
1016,-59.0,-1153.0,-240.0,-158.0,-144.0,149.0
1017,75.0,-1267.0,-275.0,83.0,-133.0,-10.0
1018,194.0,-1198.0,-14.0,450.0,-36.0,-163.0
1019,194.0,-1104.0,284.0,582.0,106.0,-232.0
1020,245.0,-1054.0,360.0,390.0,116.0,-255.0
1021,231.0,-1079.0,235.0,136.0,69.0,-240.0
1022,220.0,-1129.0,59.0,20.0,38.0,-250.0
1023,161.0,-1087.0,48.0,73.0,65.0,-294.0
1024,137.0,-1007.0,133.0,141.0,95.0,-353.0
1025,174.0,-955.0,180.0,126.0,76.0,-402.0
1026,160.0,-938.0,198.0,64.0,60.0,-413.0
1027,174.0,-928.0,167.0,14.0,34.0,-414.0
1028,224.0,-1009.0,118.0,-53.0,13.0,-285.0
1029,223.0,-955.0,156.0,62.0,-29.0,-110.0
1030,276.0,-999.0,116.0,2.0,-11.0,-47.0
1031,300.0,-981.0,122.0,26.0,-3.0,-10.0
1032,294.0,-982.0,126.0,35.0,24.0,34.0
1033,269.0,-984.0,136.0,38.0,52.0,68.0
1034,268.0,-985.0,139.0,39.0,67.0,97.0
1035,265.0,-981.0,146.0,40.0,79.0,127.0
1036,285.0,-970.0,142.0,41.0,82.0,162.0
1037,296.0,-965.0,130.0,53.0,90.0,215.0
1038,307.0,-942.0,123.0,85.0,94.0,285.0
1039,299.0,-901.0,144.0,130.0,99.0,371.0
1040,298.0,-862.0,135.0,159.0,97.0,459.0
1041,201.0,-981.0,134.0,-13.0,148.0,75.0
1042,170.0,-978.0,163.0,3.0,49.0,-17.0
1043,168.0,-966.0,174.0,2.0,51.0,-20.0
1044,171.0,-963.0,175.0,-7.0,55.0,-23.0
1045,171.0,-972.0,166.0,-18.0,64.0,-25.0
1046,170.0,-979.0,157.0,-21.0,70.0,-29.0
1047,173.0,-971.0,162.0,-15.0,72.0,-33.0
1048,170.0,-963.0,171.0,-13.0,73.0,-33.0
1049,170.0,-964.0,168.0,-16.0,72.0,-32.0
1050,174.0,-968.0,164.0,-15.0,70.0,-29.0
1051,174.0,-969.0,161.0,-10.0,68.0,-22.0
1052,175.0,-962.0,163.0,-1.0,64.0,-14.0
1053,166.0,-960.0,168.0,5.0,60.0,-7.0
1054,111.0,-936.0,201.0,-41.0,34.0,-254.0
1055,132.0,-942.0,194.0,-56.0,6.0,-291.0
1056,194.0,-948.0,160.0,-69.0,-27.0,-318.0
1057,229.0,-933.0,150.0,-59.0,-45.0,-301.0
1058,217.0,-928.0,168.0,-46.0,-46.0,-264.0
1059,210.0,-954.0,163.0,-52.0,-50.0,-244.0
1060,243.0,-972.0,134.0,-50.0,-62.0,-234.0
1061,246.0,-977.0,138.0,-37.0,-54.0,-207.0
1062,271.0,-974.0,132.0,-29.0,-47.0,-179.0
1063,247.0,-1003.0,125.0,-19.0,-28.0,-144.0
1064,219.0,-1018.0,117.0,-3.0,-7.0,-134.0
1065,236.0,-982.0,138.0,23.0,-5.0,-139.0
1066,225.0,-972.0,158.0,29.0,5.0,-126.0
1067,233.0,-978.0,153.0,21.0,6.0,-115.0
1068,236.0,-976.0,146.0,15.0,8.0,-105.0
1069,201.0,-959.0,166.0,-11.0,88.0,22.0
1070,206.0,-977.0,154.0,46.0,80.0,21.0
1071,225.0,-1425.0,141.0,229.0,-86.0,-226.0
1072,336.0,-1270.0,123.0,468.0,-52.0,-251.0
1073,127.0,-1465.0,226.0,657.0,3.0,-193.0
1074,383.0,-1469.0,124.0,905.0,-95.0,-224.0
1075,392.0,-1401.0,171.0,1159.0,43.0,-263.0
1076,224.0,-1317.0,182.0,1226.0,235.0,-363.0
1077,49.0,-1381.0,244.0,1176.0,288.0,-437.0
1078,-164.0,-1328.0,306.0,1215.0,185.0,-427.0
1079,-182.0,-1255.0,280.0,1239.0,-77.0,-334.0
1080,-122.0,-1138.0,208.0,1233.0,-345.0,-207.0
1081,-34.0,-955.0,139.0,1189.0,-534.0,-42.0
1082,-119.0,-614.0,-876.0,-1476.0,285.0,904.0
1083,-70.0,-731.0,-779.0,-1676.0,96.0,844.0
1084,10.0,-856.0,-672.0,-1851.0,-103.0,788.0
1085,102.0,-992.0,-558.0,-1998.0,-273.0,746.0
1086,159.0,-1150.0,-427.0,-2102.0,-400.0,705.0
1087,208.0,-1294.0,-294.0,-2133.0,-500.0,644.0
1088,266.0,-1415.0,-173.0,-2084.0,-577.0,571.0
1089,271.0,-1426.0,-77.0,-1953.0,-609.0,487.0
1090,206.0,-1234.0,-4.0,-1834.0,-635.0,409.0
1091,296.0,-1231.0,22.0,-1950.0,-764.0,399.0
1092,14.0,-1171.0,434.0,-1109.0,195.0,85.0
1093,11.0,-875.0,-67.0,11.0,112.0,-90.0
1094,43.0,-929.0,-55.0,195.0,261.0,-155.0
1095,-17.0,-950.0,-25.0,234.0,276.0,-148.0
1096,-78.0,-943.0,39.0,294.0,267.0,-110.0
1097,-332.0,-1218.0,146.0,437.0,190.0,73.0
1098,-107.0,-762.0,155.0,760.0,-107.0,314.0
1099,-173.0,-840.0,31.0,556.0,-143.0,319.0
1100,-182.0,-1098.0,-277.0,419.0,-201.0,211.0
1101,-316.0,-1398.0,-677.0,591.0,-163.0,-18.0
1102,-198.0,-1788.0,-1243.0,1056.0,-173.0,-393.0
1103,-119.0,-1707.0,-1285.0,2289.0,-45.0,-701.0
1104,-312.0,-1250.0,-809.0,2815.0,939.0,-1108.0
1105,194.0,-985.0,-94.0,631.0,251.0,-406.0
1106,197.0,-970.0,10.0,457.0,335.0,-387.0
1107,279.0,-986.0,45.0,454.0,94.0,-42.0
1108,255.0,-1023.0,38.0,470.0,108.0,-15.0
1109,309.0,-1037.0,2.0,515.0,79.0,15.0
1110,283.0,-1027.0,7.0,605.0,65.0,97.0
1111,343.0,-957.0,47.0,699.0,-15.0,205.0
1112,414.0,-921.0,12.0,728.0,-69.0,318.0
1113,313.0,-964.0,57.0,690.0,29.0,400.0
1114,174.0,-930.0,125.0,650.0,131.0,408.0
1115,162.0,-936.0,150.0,592.0,106.0,353.0
1116,190.0,-935.0,133.0,542.0,63.0,297.0
1117,201.0,-914.0,150.0,507.0,89.0,257.0
1118,111.0,-876.0,238.0,424.0,147.0,161.0
1119,239.0,-914.0,185.0,31.0,58.0,-232.0
1120,290.0,-970.0,137.0,12.0,47.0,-169.0
1121,280.0,-957.0,154.0,16.0,56.0,-155.0
1122,283.0,-948.0,162.0,8.0,61.0,-145.0
1123,282.0,-945.0,169.0,-6.0,71.0,-135.0
1124,275.0,-944.0,170.0,-23.0,86.0,-127.0
1125,236.0,-962.0,169.0,-42.0,108.0,-132.0
1126,248.0,-952.0,171.0,-48.0,105.0,-156.0
1127,268.0,-935.0,158.0,-47.0,93.0,-161.0
1128,282.0,-924.0,152.0,-46.0,89.0,-150.0
1129,293.0,-921.0,165.0,-54.0,96.0,-140.0
1130,281.0,-940.0,168.0,-59.0,93.0,-116.0
1131,238.0,-973.0,178.0,155.0,176.0,82.0
1132,249.0,-934.0,198.0,146.0,185.0,-6.0
1133,257.0,-930.0,195.0,133.0,193.0,-15.0
1134,269.0,-933.0,193.0,122.0,202.0,-18.0
1135,248.0,-950.0,201.0,116.0,220.0,-22.0
1136,235.0,-970.0,187.0,113.0,224.0,-32.0
1137,241.0,-977.0,190.0,126.0,209.0,-48.0
1138,256.0,-963.0,202.0,141.0,196.0,-61.0
1139,265.0,-957.0,209.0,147.0,191.0,-64.0
1140,273.0,-956.0,212.0,146.0,195.0,-61.0
1141,259.0,-961.0,214.0,143.0,208.0,-62.0
1142,280.0,-963.0,201.0,145.0,210.0,-71.0
1143,242.0,-1000.0,250.0,520.0,35.0,-283.0
1144,390.0,-1135.0,338.0,1778.0,-408.0,-445.0
1145,473.0,-1168.0,340.0,1859.0,-347.0,-481.0
1146,512.0,-1170.0,319.0,1949.0,-254.0,-513.0
1147,584.0,-1186.0,329.0,2019.0,-177.0,-549.0
1148,629.0,-1177.0,384.0,2101.0,-73.0,-582.0
1149,627.0,-1159.0,401.0,2180.0,51.0,-618.0
1150,712.0,-1197.0,449.0,2228.0,137.0,-673.0
1151,668.0,-1149.0,430.0,2306.0,270.0,-746.0
1152,632.0,-1006.0,404.0,2327.0,373.0,-757.0
1153,482.0,-936.0,423.0,2213.0,382.0,-726.0
1154,545.0,-1106.0,345.0,2075.0,253.0,-756.0
1155,-262.0,-399.0,-317.0,-777.0,810.0,737.0
1156,177.0,-809.0,-340.0,-3025.0,-396.0,1666.0
1157,328.0,-1606.0,422.0,-3269.0,-53.0,1061.0
1158,321.0,-1550.0,453.0,-3182.0,31.0,1036.0
1159,341.0,-1455.0,462.0,-3149.0,113.0,1020.0
1160,415.0,-1484.0,438.0,-3202.0,192.0,1013.0
1161,454.0,-1560.0,421.0,-3215.0,303.0,986.0
1162,386.0,-1605.0,451.0,-3134.0,428.0,914.0
1163,309.0,-1584.0,495.0,-2993.0,452.0,825.0
1164,278.0,-1554.0,549.0,-2863.0,375.0,739.0
1165,327.0,-1608.0,566.0,-2757.0,262.0,651.0
1166,411.0,-1519.0,655.0,-2593.0,130.0,524.0
1167,500.0,-1486.0,736.0,-2470.0,28.0,351.0
1168,-18.0,-1333.0,379.0,215.0,12.0,-487.0
1169,407.0,-1007.0,288.0,1206.0,504.0,-958.0
1170,399.0,-946.0,232.0,1005.0,632.0,-878.0
1171,328.0,-1038.0,49.0,841.0,627.0,-770.0
1172,221.0,-998.0,-70.0,801.0,567.0,-710.0
1173,209.0,-949.0,-102.0,800.0,436.0,-669.0
1174,237.0,-933.0,-53.0,787.0,318.0,-614.0
1175,202.0,-929.0,2.0,766.0,278.0,-567.0
1176,185.0,-920.0,19.0,744.0,247.0,-553.0
1177,268.0,-915.0,52.0,720.0,175.0,-532.0
1178,307.0,-916.0,64.0,680.0,130.0,-468.0
1179,277.0,-963.0,15.0,645.0,135.0,-406.0
1180,304.0,-950.0,-7.0,640.0,98.0,-347.0
1181,269.0,-954.0,-19.0,650.0,84.0,-280.0
1182,274.0,-963.0,-6.0,674.0,57.0,-238.0
1183,312.0,-959.0,17.0,699.0,39.0,-195.0
1184,195.0,-967.0,176.0,274.0,89.0,-45.0
1185,254.0,-999.0,143.0,-16.0,65.0,-382.0
1186,290.0,-1028.0,116.0,-8.0,48.0,-390.0
1187,293.0,-998.0,115.0,33.0,40.0,-384.0
1188,285.0,-973.0,156.0,54.0,32.0,-370.0
1189,268.0,-965.0,157.0,63.0,39.0,-371.0
1190,288.0,-970.0,140.0,73.0,34.0,-374.0
1191,281.0,-954.0,147.0,106.0,47.0,-366.0
1192,293.0,-941.0,146.0,129.0,41.0,-357.0
1193,329.0,-926.0,135.0,155.0,24.0,-327.0
1194,323.0,-886.0,155.0,177.0,34.0,-282.0
1195,280.0,-897.0,176.0,157.0,59.0,-256.0
1196,331.0,-908.0,179.0,179.0,268.0,310.0
1197,247.0,-974.0,219.0,121.0,251.0,-35.0
1198,223.0,-980.0,231.0,122.0,241.0,-80.0
1199,242.0,-977.0,218.0,133.0,210.0,-115.0
1200,236.0,-981.0,222.0,142.0,198.0,-153.0
1201,237.0,-987.0,223.0,156.0,186.0,-177.0
1202,273.0,-965.0,221.0,176.0,157.0,-211.0
1203,284.0,-937.0,223.0,192.0,153.0,-213.0
1204,248.0,-935.0,231.0,194.0,164.0,-210.0
1205,252.0,-914.0,246.0,204.0,147.0,-201.0
1206,261.0,-932.0,242.0,197.0,136.0,-204.0
1207,299.0,-927.0,227.0,203.0,125.0,-205.0
1208,350.0,-1150.0,263.0,463.0,202.0,-280.0
1209,291.0,-1179.0,311.0,1417.0,48.0,-639.0
1210,357.0,-1187.0,288.0,1491.0,45.0,-671.0
1211,396.0,-1208.0,272.0,1560.0,68.0,-719.0
1212,415.0,-1234.0,263.0,1638.0,104.0,-779.0
1213,411.0,-1272.0,257.0,1722.0,156.0,-844.0
1214,398.0,-1313.0,292.0,1832.0,222.0,-905.0
1215,459.0,-1385.0,378.0,1988.0,296.0,-984.0
1216,324.0,-1280.0,384.0,2219.0,435.0,-1039.0
1217,420.0,-1303.0,482.0,2346.0,405.0,-1017.0
1218,327.0,-1284.0,423.0,2504.0,438.0,-975.0
1219,473.0,-1140.0,358.0,2672.0,310.0,-904.0
1220,103.0,-373.0,-346.0,-846.0,857.0,747.0
1221,-62.0,-256.0,-357.0,-959.0,1020.0,795.0
1222,-98.0,-287.0,-410.0,-1210.0,1002.0,997.0
1223,-126.0,-313.0,-440.0,-1405.0,977.0,1165.0
1224,-227.0,-235.0,-436.0,-1557.0,958.0,1203.0
1225,-279.0,-47.0,-451.0,-1782.0,837.0,1237.0
1226,-207.0,-18.0,-487.0,-2232.0,626.0,1358.0
1227,-61.0,-382.0,-531.0,-2802.0,485.0,1501.0
1228,11.0,-667.0,-453.0,-3037.0,477.0,1546.0
1229,-96.0,-695.0,-299.0,-2988.0,534.0,1467.0
1230,-119.0,-660.0,-250.0,-2969.0,439.0,1390.0
1231,567.0,-1573.0,564.0,-2989.0,-252.0,863.0
1232,592.0,-1602.0,559.0,-3001.0,-80.0,795.0
1233,498.0,-1619.0,596.0,-2937.0,130.0,708.0
1234,424.0,-1567.0,627.0,-2794.0,257.0,636.0
1235,326.0,-1505.0,656.0,-2652.0,322.0,580.0
1236,186.0,-1446.0,692.0,-2530.0,325.0,528.0
1237,108.0,-1445.0,730.0,-2433.0,230.0,485.0
1238,102.0,-1538.0,746.0,-2335.0,86.0,437.0
1239,141.0,-1541.0,765.0,-2127.0,-59.0,326.0
1240,183.0,-1425.0,721.0,-1852.0,-188.0,178.0
1241,342.0,-1241.0,687.0,-1613.0,-338.0,86.0
1242,213.0,-1406.0,374.0,428.0,-783.0,-241.0
1243,348.0,-1008.0,440.0,1011.0,-844.0,-461.0
1244,337.0,-871.0,399.0,1255.0,-789.0,-553.0
1245,304.0,-697.0,275.0,1242.0,-673.0,-467.0
1246,289.0,-923.0,29.0,1070.0,-540.0,-363.0
1247,203.0,-1215.0,-281.0,1256.0,-329.0,-312.0
1248,-17.0,-1763.0,-853.0,1529.0,-73.0,-428.0
1249,0.0,-1959.0,-1478.0,1644.0,39.0,-777.0
1250,45.0,-1357.0,-787.0,2066.0,302.0,-1017.0
1251,211.0,-1037.0,-33.0,631.0,184.0,-444.0
1252,354.0,-931.0,91.0,663.0,49.0,352.0
1253,308.0,-965.0,98.0,626.0,101.0,416.0
1254,286.0,-961.0,88.0,607.0,122.0,462.0
1255,166.0,-953.0,194.0,540.0,116.0,450.0
1256,199.0,-989.0,147.0,487.0,93.0,395.0
1257,194.0,-989.0,154.0,478.0,113.0,366.0
1258,189.0,-1033.0,137.0,483.0,124.0,348.0
1259,239.0,-955.0,112.0,515.0,103.0,338.0
1260,141.0,-934.0,237.0,502.0,137.0,334.0
1261,165.0,-973.0,156.0,440.0,163.0,272.0
1262,178.0,-947.0,192.0,427.0,174.0,232.0
1263,174.0,-921.0,218.0,420.0,189.0,241.0
1264,206.0,-883.0,173.0,409.0,203.0,264.0
1265,98.0,-936.0,239.0,385.0,253.0,276.0
1266,135.0,-933.0,246.0,-11.0,200.0,-395.0
1267,77.0,-931.0,276.0,-23.0,189.0,-418.0
1268,97.0,-921.0,270.0,-21.0,129.0,-439.0
1269,122.0,-913.0,261.0,-18.0,82.0,-452.0
1270,113.0,-905.0,248.0,-18.0,66.0,-465.0
1271,107.0,-924.0,245.0,-29.0,37.0,-493.0
1272,173.0,-950.0,219.0,-39.0,-10.0,-527.0
1273,272.0,-920.0,191.0,-36.0,-28.0,-534.0
1274,275.0,-918.0,193.0,-46.0,15.0,-519.0
1275,251.0,-926.0,201.0,-56.0,57.0,-505.0
1276,220.0,-912.0,219.0,-47.0,70.0,-480.0
1277,271.0,-955.0,212.0,45.0,131.0,-58.0
1278,236.0,-904.0,250.0,215.0,-71.0,-4.0
1279,276.0,-888.0,246.0,204.0,-82.0,6.0
1280,289.0,-879.0,240.0,178.0,-61.0,10.0
1281,300.0,-889.0,238.0,146.0,-36.0,6.0
1282,276.0,-913.0,244.0,114.0,1.0,1.0
1283,272.0,-908.0,253.0,102.0,13.0,17.0
1284,293.0,-915.0,249.0,90.0,14.0,38.0
1285,314.0,-913.0,239.0,80.0,31.0,48.0
1286,288.0,-927.0,246.0,61.0,65.0,47.0
1287,266.0,-933.0,249.0,50.0,82.0,43.0
1288,329.0,-852.0,242.0,19.0,-53.0,-60.0
1289,293.0,-852.0,251.0,-9.0,-4.0,-61.0
1290,246.0,-858.0,258.0,-34.0,29.0,-62.0
1291,221.0,-861.0,266.0,-49.0,30.0,-47.0
1292,197.0,-899.0,274.0,-55.0,21.0,-30.0
1293,216.0,-919.0,265.0,-39.0,-8.0,1.0
1294,262.0,-929.0,251.0,-14.0,-36.0,31.0
1295,307.0,-915.0,239.0,3.0,-40.0,39.0
1296,271.0,-953.0,250.0,1.0,-8.0,32.0
1297,245.0,-961.0,255.0,15.0,2.0,26.0
1298,227.0,-951.0,262.0,33.0,-4.0,25.0
1299,143.0,-986.0,288.0,95.0,-63.0,60.0
1300,229.0,-1012.0,328.0,763.0,-188.0,384.0
1301,229.0,-936.0,385.0,906.0,-85.0,479.0
1302,170.0,-862.0,400.0,860.0,-68.0,432.0
1303,267.0,-866.0,367.0,780.0,-144.0,437.0
1304,241.0,-834.0,383.0,729.0,-100.0,420.0
1305,144.0,-805.0,381.0,683.0,-80.0,437.0
1306,155.0,-750.0,411.0,641.0,-138.0,530.0
1307,69.0,-719.0,440.0,596.0,-165.0,655.0
1308,41.0,-670.0,457.0,548.0,-232.0,823.0
1309,-33.0,-653.0,470.0,477.0,-290.0,1025.0
1310,-104.0,-623.0,483.0,391.0,-386.0,1249.0
1311,-139.0,-594.0,465.0,280.0,-551.0,1477.0
1312,-211.0,-1000.0,-425.0,-455.0,-5148.0,1984.0
1313,855.0,-644.0,994.0,942.0,-636.0,-750.0
1314,358.0,-613.0,520.0,607.0,-498.0,-489.0
1315,248.0,-587.0,164.0,329.0,-581.0,-217.0
1316,273.0,-754.0,-59.0,108.0,-586.0,-29.0
1317,339.0,-895.0,-143.0,51.0,-422.0,54.0
1318,338.0,-988.0,-61.0,134.0,-161.0,100.0
1319,325.0,-984.0,93.0,251.0,36.0,170.0
1320,279.0,-945.0,200.0,269.0,144.0,255.0
1321,241.0,-954.0,206.0,215.0,179.0,337.0
1322,195.0,-948.0,241.0,182.0,173.0,396.0
1323,114.0,-989.0,303.0,119.0,142.0,413.0
1324,62.0,-1115.0,192.0,-43.0,40.0,318.0
1325,226.0,-981.0,147.0,10.0,-39.0,-127.0
1326,231.0,-967.0,153.0,34.0,-44.0,-111.0
1327,243.0,-949.0,168.0,48.0,-46.0,-89.0
1328,246.0,-945.0,162.0,47.0,-41.0,-64.0
1329,247.0,-944.0,160.0,53.0,-32.0,-36.0
1330,223.0,-947.0,169.0,61.0,-21.0,-9.0
1331,225.0,-956.0,163.0,65.0,-29.0,9.0
1332,241.0,-936.0,174.0,72.0,-33.0,26.0
1333,201.0,-949.0,174.0,-106.0,93.0,120.0
1334,183.0,-952.0,183.0,-108.0,93.0,118.0
1335,179.0,-969.0,166.0,-126.0,93.0,96.0
1336,173.0,-973.0,161.0,-132.0,99.0,69.0
1337,170.0,-956.0,177.0,-129.0,99.0,40.0
1338,172.0,-953.0,189.0,-140.0,101.0,8.0
1339,187.0,-956.0,178.0,-158.0,100.0,-19.0
1340,188.0,-957.0,171.0,-164.0,109.0,-30.0
1341,191.0,-961.0,166.0,-164.0,117.0,-38.0
1342,192.0,-967.0,151.0,-160.0,122.0,-43.0
1343,202.0,-979.0,132.0,-148.0,125.0,-42.0
1344,171.0,-959.0,168.0,3.0,85.0,-32.0
1345,251.0,-943.0,148.0,-16.0,52.0,-103.0
1346,221.0,-966.0,138.0,-8.0,64.0,-56.0
1347,189.0,-995.0,143.0,6.0,65.0,-29.0
1348,181.0,-1024.0,137.0,13.0,58.0,-32.0
1349,201.0,-1019.0,131.0,22.0,51.0,-41.0
1350,207.0,-997.0,154.0,35.0,55.0,-32.0
1351,215.0,-1026.0,126.0,34.0,60.0,-24.0
1352,205.0,-997.0,132.0,63.0,72.0,-17.0
1353,180.0,-957.0,175.0,84.0,73.0,-8.0
1354,181.0,-960.0,174.0,67.0,67.0,-15.0
1355,197.0,-979.0,151.0,54.0,62.0,-23.0
1356,173.0,-990.0,157.0,4.0,81.0,-33.0
1357,197.0,-990.0,149.0,24.0,65.0,-46.0
1358,178.0,-987.0,165.0,46.0,61.0,-39.0
1359,201.0,-998.0,163.0,54.0,49.0,-38.0
1360,202.0,-1011.0,161.0,61.0,43.0,-29.0
1361,218.0,-1028.0,149.0,71.0,38.0,-18.0
1362,211.0,-1055.0,150.0,89.0,36.0,0.0
1363,199.0,-1095.0,146.0,101.0,22.0,11.0
1364,177.0,-1112.0,155.0,110.0,-11.0,6.0
1365,157.0,-1149.0,171.0,107.0,-68.0,-11.0
1366,-78.0,-769.0,-138.0,1942.0,-237.0,-86.0
1367,-54.0,-453.0,-312.0,1729.0,-476.0,47.0
1368,-494.0,-250.0,-733.0,1230.0,-708.0,310.0
1369,-382.0,-336.0,-1088.0,582.0,-1382.0,441.0
1370,-235.0,-384.0,-1086.0,96.0,-2053.0,500.0
1371,257.0,-549.0,-1128.0,-253.0,-2506.0,674.0
1372,561.0,-296.0,-1114.0,-412.0,-2495.0,685.0
1373,650.0,-380.0,-1096.0,-875.0,-2124.0,652.0
1374,591.0,-473.0,-1015.0,-1273.0,-1681.0,715.0
1375,510.0,-528.0,-910.0,-1574.0,-1257.0,775.0
1376,403.0,-633.0,-790.0,-1855.0,-876.0,859.0
1377,87.0,-1379.0,54.0,-2412.0,-530.0,488.0
1378,112.0,-1421.0,106.0,-2337.0,-693.0,451.0
1379,231.0,-1437.0,191.0,-2232.0,-851.0,407.0
1380,248.0,-1395.0,268.0,-2104.0,-910.0,346.0
1381,232.0,-1273.0,285.0,-1999.0,-923.0,328.0
1382,352.0,-1317.0,323.0,-1993.0,-937.0,382.0
1383,503.0,-1417.0,410.0,-1939.0,-847.0,385.0
1384,647.0,-1347.0,479.0,-1745.0,-646.0,332.0
1385,675.0,-1271.0,489.0,-1559.0,-346.0,269.0
1386,563.0,-1158.0,440.0,-1396.0,-24.0,196.0
1387,420.0,-1091.0,409.0,-1295.0,226.0,155.0
1388,-34.0,-920.0,35.0,451.0,-51.0,-71.0
1389,-5.0,-941.0,352.0,1093.0,-293.0,-667.0
1390,497.0,-1077.0,198.0,685.0,-1021.0,-840.0
1391,307.0,-1045.0,-20.0,840.0,-109.0,-677.0
1392,238.0,-961.0,-218.0,989.0,391.0,-440.0
1393,190.0,-919.0,-161.0,955.0,561.0,-382.0
1394,98.0,-930.0,-132.0,856.0,779.0,-363.0
1395,61.0,-937.0,-36.0,846.0,781.0,-401.0
1396,118.0,-954.0,0.0,823.0,701.0,-450.0
1397,97.0,-965.0,-41.0,797.0,639.0,-481.0
1398,97.0,-990.0,-97.0,775.0,538.0,-513.0
1399,74.0,-1027.0,-78.0,777.0,414.0,-541.0
1400,27.0,-1024.0,-73.0,799.0,284.0,-599.0
1401,15.0,-1033.0,-76.0,822.0,153.0,-703.0
1402,206.0,-982.0,20.0,596.0,240.0,-672.0
1403,194.0,-966.0,6.0,578.0,242.0,-681.0
1404,216.0,-982.0,-22.0,559.0,204.0,-684.0
1405,229.0,-967.0,13.0,553.0,192.0,-678.0
1406,295.0,-944.0,57.0,541.0,173.0,-663.0
1407,285.0,-1006.0,59.0,646.0,-312.0,-251.0
1408,293.0,-1002.0,67.0,660.0,-335.0,-221.0
1409,327.0,-972.0,59.0,694.0,-365.0,-177.0
1410,398.0,-949.0,-10.0,739.0,-350.0,-126.0
1411,444.0,-888.0,52.0,796.0,-284.0,-58.0
1412,479.0,-841.0,102.0,793.0,-216.0,18.0
1413,472.0,-831.0,77.0,744.0,-125.0,83.0
1414,462.0,-821.0,58.0,692.0,0.0,130.0
1415,352.0,-793.0,156.0,642.0,141.0,187.0
1416,206.0,-791.0,233.0,560.0,208.0,208.0
1417,138.0,-831.0,259.0,447.0,220.0,149.0
1418,185.0,-941.0,198.0,283.0,133.0,-26.0
1419,217.0,-958.0,231.0,65.0,144.0,-205.0
1420,171.0,-972.0,249.0,34.0,143.0,-284.0
1421,296.0,-1008.0,186.0,16.0,69.0,-354.0
1422,319.0,-1026.0,189.0,46.0,51.0,-361.0
1423,282.0,-1022.0,206.0,85.0,51.0,-361.0
1424,275.0,-1006.0,215.0,118.0,20.0,-371.0
1425,292.0,-993.0,216.0,149.0,-17.0,-363.0
1426,341.0,-972.0,205.0,183.0,-47.0,-336.0
1427,340.0,-955.0,209.0,211.0,-38.0,-288.0
1428,317.0,-950.0,216.0,239.0,-28.0,-223.0
1429,323.0,-913.0,201.0,279.0,-40.0,-152.0
1430,322.0,-906.0,208.0,300.0,-48.0,-97.0
1431,347.0,-886.0,205.0,317.0,-61.0,-42.0
1432,408.0,-858.0,168.0,330.0,-73.0,6.0
1433,505.0,-808.0,160.0,325.0,-48.0,35.0
1434,272.0,-941.0,249.0,4.0,249.0,143.0
1435,230.0,-875.0,285.0,-2.0,344.0,243.0
1436,217.0,-996.0,258.0,32.0,278.0,142.0
1437,224.0,-991.0,260.0,55.0,275.0,120.0
1438,227.0,-1005.0,267.0,71.0,277.0,104.0
1439,231.0,-1009.0,268.0,89.0,275.0,82.0
1440,215.0,-1008.0,274.0,110.0,278.0,58.0
1441,188.0,-1027.0,279.0,128.0,276.0,26.0
1442,182.0,-1047.0,285.0,161.0,253.0,-23.0
1443,111.0,-1123.0,292.0,201.0,236.0,-74.0
1444,116.0,-1145.0,302.0,289.0,158.0,-136.0
1445,115.0,-1207.0,310.0,370.0,81.0,-212.0
1446,148.0,-1273.0,304.0,462.0,-3.0,-306.0
1447,207.0,-1275.0,301.0,586.0,-83.0,-393.0
1448,249.0,-1278.0,301.0,708.0,-121.0,-444.0
1449,262.0,-1290.0,309.0,839.0,-124.0,-430.0
1450,236.0,-1325.0,331.0,956.0,-97.0,-388.0
1451,196.0,-1079.0,390.0,2220.0,34.0,-804.0
1452,270.0,-1090.0,482.0,2269.0,-13.0,-759.0
1453,387.0,-1119.0,475.0,2317.0,-20.0,-759.0
1454,447.0,-1105.0,438.0,2362.0,38.0,-773.0
1455,484.0,-1163.0,416.0,2350.0,130.0,-758.0
1456,493.0,-1212.0,407.0,2374.0,229.0,-713.0
1457,491.0,-1169.0,389.0,2441.0,287.0,-645.0
1458,503.0,-1171.0,369.0,2463.0,295.0,-573.0
1459,496.0,-1175.0,354.0,2610.0,263.0,-509.0
1460,563.0,-1127.0,331.0,2709.0,176.0,-495.0
1461,458.0,-1080.0,234.0,2904.0,250.0,-540.0
1462,154.0,-929.0,-41.0,-3322.0,-220.0,1720.0
1463,167.0,-867.0,-19.0,-3369.0,-143.0,1629.0
1464,154.0,-874.0,11.0,-3545.0,-83.0,1594.0
1465,49.0,-1044.0,21.0,-3803.0,-56.0,1604.0
1466,132.0,-1262.0,43.0,-3978.0,-176.0,1598.0
1467,147.0,-1422.0,98.0,-3987.0,-222.0,1563.0
1468,-9.0,-1425.0,165.0,-3876.0,-237.0,1478.0
1469,-78.0,-1454.0,185.0,-3844.0,-441.0,1329.0
1470,-34.0,-1614.0,242.0,-3879.0,-739.0,1219.0
1471,133.0,-1769.0,315.0,-3800.0,-1006.0,1224.0
1472,355.0,-1794.0,372.0,-3584.0,-1157.0,1220.0
1473,533.0,-1700.0,386.0,-3372.0,-1149.0,1117.0
1474,603.0,-1538.0,374.0,-3269.0,-1005.0,1027.0
1475,666.0,-1508.0,346.0,-3339.0,-832.0,1018.0
1476,793.0,-1614.0,360.0,-3431.0,-661.0,1012.0
1477,202.0,-1086.0,830.0,-1109.0,1521.0,-87.0
1478,120.0,-1000.0,-39.0,756.0,683.0,-401.0
1479,120.0,-985.0,-84.0,675.0,621.0,-442.0
1480,114.0,-942.0,-37.0,662.0,553.0,-497.0
1481,208.0,-918.0,31.0,623.0,460.0,-529.0
1482,243.0,-932.0,54.0,559.0,389.0,-491.0
1483,226.0,-967.0,-35.0,511.0,321.0,-441.0
1484,225.0,-962.0,-81.0,521.0,236.0,-407.0
1485,256.0,-939.0,-55.0,552.0,158.0,-366.0
1486,242.0,-946.0,-43.0,564.0,134.0,-312.0
1487,205.0,-949.0,-22.0,558.0,136.0,-274.0
1488,196.0,-956.0,23.0,539.0,113.0,-258.0
1489,252.0,-931.0,135.0,604.0,55.0,-364.0
1490,198.0,-909.0,187.0,426.0,71.0,414.0
1491,158.0,-936.0,193.0,361.0,94.0,347.0
1492,148.0,-960.0,183.0,304.0,103.0,258.0
1493,175.0,-962.0,182.0,261.0,98.0,171.0
1494,149.0,-967.0,205.0,217.0,109.0,96.0
1495,176.0,-971.0,189.0,171.0,104.0,18.0
1496,196.0,-961.0,176.0,145.0,98.0,-35.0
1497,215.0,-936.0,187.0,132.0,85.0,-63.0
1498,239.0,-926.0,189.0,114.0,75.0,-71.0
1499,244.0,-925.0,177.0,96.0,82.0,-65.0
1500,241.0,-917.0,188.0,84.0,91.0,-55.0
1501,251.0,-925.0,185.0,65.0,84.0,27.0
1502,220.0,-963.0,189.0,59.0,141.0,32.0
1503,230.0,-964.0,180.0,61.0,140.0,23.0
1504,224.0,-950.0,191.0,70.0,144.0,22.0
1505,211.0,-945.0,196.0,76.0,147.0,21.0
1506,231.0,-931.0,204.0,82.0,142.0,20.0
1507,256.0,-925.0,206.0,82.0,143.0,31.0
1508,260.0,-930.0,206.0,83.0,161.0,52.0
1509,244.0,-937.0,208.0,84.0,188.0,70.0
1510,211.0,-944.0,210.0,81.0,209.0,80.0
1511,184.0,-970.0,203.0,73.0,218.0,75.0
1512,207.0,-991.0,184.0,75.0,204.0,60.0
1513,267.0,-1011.0,211.0,344.0,205.0,-28.0
1514,291.0,-1036.0,217.0,389.0,210.0,-15.0
1515,328.0,-1063.0,207.0,433.0,223.0,-22.0
1516,347.0,-1078.0,199.0,489.0,248.0,-21.0
1517,344.0,-1086.0,217.0,544.0,280.0,-53.0
1518,332.0,-1079.0,229.0,596.0,308.0,-121.0
1519,293.0,-1097.0,253.0,619.0,331.0,-247.0
1520,282.0,-1093.0,257.0,612.0,328.0,-389.0
1521,211.0,-1102.0,285.0,604.0,378.0,-488.0
1522,170.0,-1271.0,345.0,2067.0,433.0,-817.0
1523,314.0,-1057.0,96.0,-2971.0,-221.0,1143.0
1524,246.0,-1119.0,150.0,-2962.0,-185.0,1115.0
1525,197.0,-1194.0,214.0,-2953.0,-230.0,1086.0
1526,195.0,-1276.0,282.0,-2931.0,-344.0,1042.0
1527,235.0,-1361.0,339.0,-2882.0,-484.0,974.0
1528,294.0,-1401.0,377.0,-2790.0,-606.0,888.0
1529,350.0,-1394.0,394.0,-2682.0,-688.0,783.0
1530,354.0,-1335.0,394.0,-2598.0,-705.0,682.0
1531,374.0,-1279.0,370.0,-2575.0,-691.0,640.0
1532,381.0,-1227.0,351.0,-2607.0,-627.0,662.0
1533,438.0,-1299.0,328.0,-2687.0,-531.0,721.0
1534,350.0,-1345.0,351.0,-2593.0,-179.0,739.0
1535,171.0,-1086.0,542.0,-605.0,-286.0,-100.0
1536,146.0,-1079.0,511.0,-445.0,-311.0,-110.0
1537,111.0,-1032.0,486.0,-277.0,-340.0,-142.0
1538,79.0,-1010.0,469.0,-138.0,-397.0,-177.0
1539,88.0,-1011.0,434.0,-10.0,-467.0,-197.0
1540,76.0,-987.0,396.0,127.0,-513.0,-209.0
1541,103.0,-969.0,362.0,245.0,-559.0,-228.0
1542,118.0,-1105.0,334.0,343.0,-578.0,-253.0
1543,88.0,-1061.0,351.0,608.0,-596.0,-305.0
1544,167.0,-826.0,367.0,823.0,-645.0,-302.0
1545,170.0,-830.0,286.0,692.0,-582.0,-238.0
1546,168.0,-905.0,78.0,524.0,-493.0,-194.0
1547,115.0,-1139.0,-254.0,500.0,-397.0,-170.0
1548,-104.0,-1584.0,-780.0,760.0,-254.0,-263.0
1549,-224.0,-1949.0,-1357.0,1268.0,-192.0,-531.0
1550,151.0,-991.0,-10.0,502.0,-56.0,-272.0
1551,106.0,-1021.0,-89.0,468.0,17.0,-300.0
1552,136.0,-1018.0,-88.0,500.0,40.0,-352.0
1553,141.0,-1025.0,-68.0,544.0,74.0,-398.0
1554,134.0,-1036.0,-65.0,590.0,128.0,-449.0
1555,148.0,-1038.0,-62.0,643.0,174.0,-502.0
1556,100.0,-940.0,249.0,792.0,-3.0,553.0
1557,103.0,-954.0,238.0,697.0,9.0,413.0
1558,-23.0,-968.0,263.0,613.0,81.0,273.0
1559,18.0,-968.0,192.0,533.0,29.0,99.0
1560,47.0,-939.0,228.0,468.0,6.0,-45.0
1561,124.0,-900.0,256.0,408.0,-8.0,-138.0
1562,128.0,-910.0,247.0,334.0,12.0,-196.0
1563,176.0,-912.0,219.0,287.0,10.0,-235.0
1564,180.0,-908.0,233.0,248.0,29.0,-247.0
1565,201.0,-892.0,217.0,217.0,39.0,-251.0
1566,205.0,-921.0,206.0,190.0,68.0,-236.0
1567,163.0,-946.0,252.0,71.0,196.0,-19.0
1568,272.0,-838.0,233.0,148.0,166.0,362.0
1569,264.0,-825.0,247.0,147.0,197.0,472.0
1570,210.0,-855.0,258.0,128.0,239.0,544.0
1571,170.0,-863.0,264.0,123.0,254.0,592.0
1572,142.0,-895.0,277.0,115.0,258.0,612.0
1573,141.0,-950.0,279.0,107.0,253.0,598.0
1574,108.0,-1006.0,259.0,105.0,258.0,565.0
1575,2.0,-1013.0,277.0,117.0,265.0,519.0
1576,-39.0,-1013.0,297.0,114.0,208.0,433.0
1577,-27.0,-1017.0,287.0,97.0,129.0,338.0
1578,39.0,-1014.0,271.0,82.0,57.0,252.0
1579,60.0,-964.0,280.0,12.0,-64.0,-50.0
1580,127.0,-954.0,280.0,58.0,-127.0,32.0
1581,104.0,-949.0,280.0,50.0,-114.0,42.0
1582,84.0,-940.0,285.0,43.0,-115.0,46.0
1583,97.0,-940.0,286.0,33.0,-125.0,41.0
1584,119.0,-947.0,275.0,24.0,-128.0,40.0
1585,125.0,-940.0,278.0,19.0,-121.0,46.0
1586,140.0,-951.0,276.0,8.0,-113.0,52.0
1587,127.0,-957.0,272.0,0.0,-97.0,62.0
1588,125.0,-944.0,276.0,-3.0,-93.0,73.0
1589,110.0,-947.0,277.0,-13.0,-85.0,80.0
1590,107.0,-943.0,276.0,-19.0,-84.0,83.0
1591,75.0,-982.0,270.0,-22.0,-133.0,61.0
1592,63.0,-970.0,279.0,67.0,-43.0,146.0
1593,26.0,-968.0,287.0,75.0,-42.0,154.0
1594,32.0,-954.0,282.0,79.0,-63.0,161.0
1595,-3.0,-927.0,291.0,78.0,-74.0,182.0
1596,-51.0,-977.0,311.0,63.0,-104.0,189.0
1597,-87.0,-1018.0,301.0,74.0,-162.0,201.0
1598,-69.0,-990.0,316.0,106.0,-249.0,258.0
1599,-44.0,-1017.0,310.0,109.0,-326.0,296.0
1600,-18.0,-1060.0,296.0,128.0,-372.0,361.0
1601,38.0,-1057.0,293.0,162.0,-413.0,429.0
1602,57.0,-1083.0,289.0,181.0,-425.0,469.0
1603,46.0,-1086.0,292.0,215.0,-419.0,520.0
1604,-23.0,-1122.0,300.0,254.0,-392.0,581.0
1605,-54.0,-1118.0,308.0,308.0,-399.0,668.0
1606,-112.0,-1124.0,315.0,352.0,-404.0,727.0
1607,-597.0,-826.0,265.0,20.0,-1877.0,1556.0
1608,151.0,-979.0,-608.0,-654.0,-5053.0,1030.0
1609,196.0,-973.0,-615.0,-656.0,-5104.0,1002.0
1610,238.0,-972.0,-611.0,-684.0,-5119.0,984.0
1611,259.0,-1037.0,-590.0,-739.0,-5100.0,990.0
1612,273.0,-1069.0,-549.0,-752.0,-5059.0,1026.0
1613,256.0,-1038.0,-517.0,-741.0,-4998.0,1069.0
1614,282.0,-991.0,-534.0,-782.0,-4983.0,1056.0
1615,228.0,-1096.0,-506.0,-914.0,-4996.0,947.0
1616,229.0,-1262.0,-450.0,-984.0,-5103.0,863.0
1617,290.0,-1296.0,-394.0,-878.0,-5252.0,868.0
1618,340.0,-1255.0,-378.0,-730.0,-5367.0,851.0
1619,1376.0,-1039.0,758.0,-232.0,-1805.0,209.0
1620,23.0,-982.0,231.0,450.0,188.0,190.0
1621,-5.0,-963.0,318.0,375.0,238.0,42.0
1622,32.0,-997.0,394.0,229.0,212.0,-100.0
1623,83.0,-1054.0,364.0,54.0,192.0,-212.0
1624,175.0,-1072.0,232.0,-53.0,108.0,-284.0
1625,234.0,-1068.0,144.0,-67.0,55.0,-283.0
1626,224.0,-1042.0,119.0,-37.0,13.0,-237.0
1627,190.0,-1036.0,146.0,-3.0,-19.0,-202.0
1628,229.0,-1022.0,152.0,26.0,-63.0,-186.0
1629,322.0,-1032.0,110.0,60.0,-97.0,-135.0
1630,401.0,-1039.0,58.0,142.0,-102.0,-10.0
1631,214.0,-964.0,195.0,14.0,-72.0,-234.0
1632,175.0,-946.0,208.0,-25.0,-4.0,-128.0
1633,194.0,-955.0,198.0,-26.0,-1.0,-116.0
1634,209.0,-955.0,193.0,-19.0,2.0,-90.0
1635,188.0,-969.0,192.0,-16.0,16.0,-61.0
1636,178.0,-965.0,194.0,-12.0,21.0,-48.0
1637,165.0,-966.0,198.0,-12.0,22.0,-44.0
1638,148.0,-969.0,205.0,-16.0,25.0,-54.0
1639,150.0,-972.0,199.0,-24.0,21.0,-71.0
1640,167.0,-970.0,194.0,-27.0,14.0,-85.0
1641,178.0,-978.0,189.0,-30.0,13.0,-88.0
1642,203.0,-976.0,187.0,-27.0,11.0,-82.0
1643,294.0,-908.0,163.0,-127.0,38.0,-127.0
1644,140.0,-1005.0,151.0,-34.0,147.0,66.0
1645,157.0,-990.0,161.0,-17.0,134.0,42.0
1646,159.0,-982.0,171.0,-7.0,129.0,29.0
1647,162.0,-974.0,173.0,-1.0,123.0,18.0
1648,160.0,-967.0,172.0,5.0,120.0,11.0
1649,163.0,-965.0,165.0,11.0,116.0,5.0
1650,173.0,-959.0,174.0,22.0,111.0,4.0
1651,169.0,-949.0,190.0,30.0,110.0,9.0
1652,167.0,-950.0,198.0,25.0,105.0,16.0
1653,168.0,-958.0,197.0,14.0,98.0,22.0
1654,163.0,-961.0,190.0,5.0,91.0,27.0
1655,57.0,-983.0,177.0,20.0,80.0,70.0
1656,173.0,-952.0,190.0,13.0,49.0,-173.0
1657,169.0,-951.0,192.0,13.0,50.0,-170.0
1658,183.0,-956.0,186.0,14.0,46.0,-174.0
1659,198.0,-950.0,192.0,15.0,41.0,-165.0
1660,208.0,-956.0,187.0,10.0,43.0,-143.0
1661,201.0,-968.0,187.0,6.0,50.0,-123.0
1662,189.0,-979.0,174.0,1.0,56.0,-109.0
1663,177.0,-971.0,187.0,5.0,58.0,-101.0
1664,186.0,-968.0,193.0,-1.0,53.0,-107.0
1665,208.0,-964.0,185.0,-13.0,50.0,-109.0
1666,197.0,-958.0,193.0,-20.0,59.0,-94.0
1667,188.0,-978.0,180.0,17.0,81.0,-3.0
1668,186.0,-997.0,191.0,77.0,63.0,-66.0
1669,245.0,-1459.0,181.0,907.0,46.0,-334.0
1670,255.0,-1395.0,203.0,1118.0,148.0,-328.0
1671,232.0,-1328.0,223.0,1232.0,289.0,-288.0
1672,232.0,-1309.0,171.0,1249.0,361.0,-369.0
1673,270.0,-1205.0,122.0,1272.0,380.0,-443.0
1674,63.0,-1025.0,153.0,1245.0,475.0,-379.0
1675,117.0,-869.0,215.0,1136.0,361.0,-315.0
1676,-259.0,-956.0,145.0,989.0,402.0,-118.0
1677,-479.0,-837.0,-71.0,922.0,209.0,345.0
1678,460.0,-1068.0,-219.0,-1944.0,-1001.0,530.0
1679,447.0,-1039.0,-152.0,-1932.0,-921.0,502.0
1680,462.0,-1026.0,-120.0,-1980.0,-850.0,498.0
1681,452.0,-1119.0,-80.0,-2080.0,-779.0,488.0
1682,339.0,-1171.0,-29.0,-2111.0,-717.0,444.0
1683,218.0,-1139.0,-36.0,-2084.0,-736.0,408.0
1684,151.0,-1167.0,-28.0,-2080.0,-830.0,403.0
1685,167.0,-1228.0,21.0,-2069.0,-959.0,386.0
1686,235.0,-1187.0,53.0,-2013.0,-1053.0,366.0
1687,324.0,-1168.0,85.0,-2008.0,-1076.0,363.0
1688,334.0,-1308.0,166.0,-2047.0,-995.0,352.0
1689,447.0,-1320.0,304.0,-1869.0,-660.0,342.0
1690,115.0,-849.0,-233.0,-32.0,7.0,-161.0
1691,96.0,-922.0,-246.0,-87.0,100.0,-129.0
1692,39.0,-957.0,-235.0,-85.0,184.0,-124.0
1693,-44.0,-950.0,-235.0,-41.0,210.0,-139.0
1694,-76.0,-930.0,-251.0,-1.0,162.0,-140.0
1695,-66.0,-864.0,-262.0,17.0,75.0,-136.0
1696,9.0,-938.0,-246.0,-18.0,-11.0,-117.0
1697,45.0,-963.0,-218.0,10.0,-34.0,-114.0
1698,51.0,-1083.0,-203.0,78.0,-23.0,-129.0
1699,66.0,-1002.0,-161.0,246.0,-20.0,-174.0
1700,75.0,-1046.0,-154.0,356.0,-38.0,-217.0
1701,140.0,-913.0,-102.0,487.0,-85.0,-256.0
1702,186.0,-1054.0,-34.0,503.0,-90.0,-252.0
1703,178.0,-1073.0,35.0,660.0,-50.0,-274.0
1704,136.0,-955.0,93.0,805.0,-5.0,-280.0
1705,255.0,-1021.0,-85.0,1039.0,222.0,-510.0
1706,133.0,-937.0,-30.0,1067.0,225.0,-328.0
1707,208.0,-930.0,138.0,661.0,128.0,177.0
1708,161.0,-947.0,204.0,573.0,133.0,119.0
1709,177.0,-992.0,158.0,489.0,105.0,45.0
1710,234.0,-980.0,136.0,456.0,72.0,-9.0
1711,208.0,-977.0,148.0,442.0,92.0,-29.0
1712,233.0,-985.0,138.0,430.0,77.0,-56.0
1713,236.0,-955.0,139.0,427.0,79.0,-72.0
1714,197.0,-940.0,160.0,420.0,86.0,-82.0
1715,198.0,-978.0,164.0,397.0,91.0,-111.0
1716,260.0,-982.0,105.0,395.0,70.0,-132.0
1717,265.0,-931.0,152.0,410.0,78.0,-114.0
1718,233.0,-928.0,178.0,392.0,98.0,-95.0
1719,229.0,-911.0,177.0,371.0,114.0,-93.0
1720,198.0,-882.0,200.0,357.0,123.0,-86.0
1721,202.0,-900.0,190.0,331.0,125.0,-90.0
1722,262.0,-925.0,201.0,158.0,113.0,-185.0
1723,309.0,-901.0,186.0,168.0,112.0,-149.0
1724,312.0,-900.0,177.0,194.0,138.0,-83.0
1725,307.0,-863.0,208.0,225.0,149.0,-2.0
1726,268.0,-877.0,203.0,238.0,187.0,228.0
1727,236.0,-881.0,249.0,248.0,186.0,278.0
1728,293.0,-896.0,214.0,230.0,173.0,291.0
1729,231.0,-903.0,230.0,225.0,207.0,327.0
1730,160.0,-893.0,263.0,219.0,211.0,337.0
1731,139.0,-933.0,280.0,180.0,191.0,287.0
1732,170.0,-947.0,256.0,149.0,160.0,231.0
1733,152.0,-945.0,261.0,133.0,155.0,194.0
1734,130.0,-957.0,272.0,112.0,143.0,142.0
1735,169.0,-898.0,259.0,36.0,115.0,70.0
1736,169.0,-1039.0,268.0,20.0,164.0,128.0
1737,150.0,-1044.0,263.0,27.0,164.0,117.0
1738,142.0,-1012.0,260.0,54.0,150.0,94.0
1739,127.0,-1023.0,271.0,67.0,141.0,54.0
1740,147.0,-1027.0,256.0,76.0,123.0,9.0
1741,190.0,-1034.0,253.0,96.0,111.0,-28.0
1742,197.0,-1022.0,259.0,120.0,122.0,-47.0
1743,186.0,-1027.0,277.0,137.0,140.0,-67.0
1744,205.0,-1010.0,272.0,152.0,152.0,-116.0
1745,184.0,-995.0,277.0,168.0,176.0,-158.0
1746,159.0,-984.0,287.0,197.0,174.0,-192.0
1747,94.0,-970.0,377.0,1004.0,-28.0,-509.0
1748,126.0,-933.0,389.0,1010.0,-43.0,-546.0
1749,188.0,-923.0,393.0,1005.0,-57.0,-574.0
1750,262.0,-922.0,394.0,999.0,-59.0,-609.0
1751,326.0,-935.0,389.0,992.0,-34.0,-650.0
1752,371.0,-977.0,388.0,991.0,15.0,-688.0
1753,405.0,-1022.0,387.0,1006.0,76.0,-730.0
1754,415.0,-1088.0,386.0,1030.0,152.0,-771.0
1755,426.0,-1150.0,384.0,1083.0,223.0,-808.0
1756,424.0,-1231.0,379.0,1157.0,311.0,-847.0
1757,364.0,-1275.0,392.0,1261.0,414.0,-895.0
1758,393.0,-668.0,226.0,2385.0,80.0,-129.0
1759,287.0,-544.0,160.0,2287.0,45.0,-83.0
1760,302.0,-333.0,108.0,2113.0,-73.0,-61.0
1761,337.0,15.0,21.0,1769.0,-141.0,-138.0
1762,487.0,241.0,-163.0,1102.0,-158.0,-300.0
1763,613.0,108.0,-325.0,190.0,16.0,-425.0
1764,164.0,-153.0,-299.0,-605.0,609.0,-309.0
1765,-205.0,-487.0,-199.0,-1057.0,801.0,187.0
1766,-134.0,-516.0,-304.0,-2273.0,172.0,1426.0
1767,-143.0,-484.0,-281.0,-2381.0,162.0,1448.0
1768,-112.0,-444.0,-283.0,-2555.0,86.0,1441.0
1769,-77.0,-533.0,-285.0,-2830.0,5.0,1493.0
1770,14.0,-662.0,-289.0,-3067.0,-93.0,1597.0
1771,59.0,-725.0,-238.0,-3233.0,-145.0,1677.0
1772,41.0,-860.0,-180.0,-3433.0,-188.0,1696.0
1773,165.0,-1040.0,-160.0,-3578.0,-333.0,1694.0
1774,268.0,-1042.0,-140.0,-3588.0,-400.0,1623.0
1775,262.0,-998.0,-90.0,-3682.0,-403.0,1482.0
1776,327.0,-1220.0,-84.0,-3934.0,-479.0,1356.0
1777,381.0,-1475.0,69.0,-3995.0,-470.0,1219.0
1778,367.0,-1192.0,1075.0,-956.0,367.0,-70.0
1779,116.0,-1133.0,923.0,-739.0,557.0,-47.0
1780,-5.0,-1102.0,743.0,-557.0,581.0,11.0
1781,-35.0,-1027.0,570.0,-382.0,494.0,28.0
1782,-95.0,-1028.0,455.0,-253.0,351.0,-21.0
1783,-171.0,-1043.0,382.0,-108.0,166.0,-62.0
1784,-123.0,-1011.0,291.0,56.0,-59.0,-83.0
1785,-26.0,-979.0,222.0,186.0,-230.0,-97.0
1786,86.0,-990.0,180.0,280.0,-325.0,-104.0
1787,168.0,-1157.0,154.0,388.0,-328.0,-127.0
1788,316.0,-1097.0,193.0,684.0,-278.0,-298.0
1789,418.0,-916.0,244.0,989.0,-143.0,-503.0
1790,372.0,-705.0,235.0,1038.0,62.0,-504.0
1791,221.0,-948.0,-35.0,876.0,109.0,-575.0
1792,330.0,-919.0,94.0,400.0,95.0,-245.0
1793,315.0,-953.0,49.0,378.0,119.0,-183.0
1794,288.0,-971.0,52.0,393.0,122.0,-133.0
1795,311.0,-968.0,46.0,425.0,87.0,-86.0
1796,333.0,-954.0,49.0,470.0,48.0,-15.0
1797,318.0,-932.0,79.0,501.0,35.0,65.0
1798,298.0,-928.0,105.0,495.0,28.0,120.0
1799,304.0,-933.0,104.0,469.0,22.0,151.0
1800,291.0,-932.0,108.0,441.0,34.0,179.0
1801,247.0,-918.0,150.0,415.0,45.0,196.0
1802,250.0,-927.0,150.0,370.0,28.0,184.0
1803,262.0,-938.0,148.0,170.0,80.0,-40.0
1804,250.0,-930.0,170.0,148.0,70.0,78.0
1805,262.0,-945.0,147.0,144.0,72.0,88.0
1806,286.0,-928.0,153.0,162.0,68.0,115.0
1807,264.0,-929.0,179.0,170.0,80.0,148.0
1808,266.0,-926.0,179.0,163.0,77.0,169.0
1809,247.0,-929.0,193.0,156.0,84.0,187.0
1810,246.0,-941.0,192.0,137.0,88.0,184.0
1811,209.0,-959.0,195.0,114.0,109.0,170.0
1812,210.0,-965.0,192.0,97.0,116.0,136.0
1813,205.0,-973.0,183.0,82.0,119.0,104.0
1814,198.0,-960.0,190.0,78.0,119.0,76.0
1815,218.0,-981.0,180.0,67.0,97.0,21.0
1816,180.0,-944.0,252.0,305.0,182.0,7.0
1817,288.0,-1049.0,225.0,378.0,191.0,-62.0
1818,271.0,-1058.0,233.0,430.0,228.0,-69.0
1819,262.0,-1066.0,237.0,481.0,251.0,-89.0
1820,251.0,-1076.0,252.0,527.0,268.0,-131.0
1821,248.0,-1094.0,262.0,570.0,271.0,-185.0
1822,216.0,-1139.0,262.0,619.0,260.0,-277.0
1823,183.0,-1167.0,276.0,692.0,213.0,-420.0
1824,180.0,-1151.0,301.0,765.0,143.0,-537.0
1825,315.0,-927.0,262.0,1924.0,-17.0,-786.0
1826,187.0,-895.0,307.0,1895.0,78.0,-809.0
1827,140.0,-823.0,361.0,1917.0,58.0,-763.0
1828,106.0,-727.0,360.0,1930.0,4.0,-719.0
1829,-48.0,-679.0,386.0,1894.0,11.0,-679.0
1830,-63.0,-588.0,441.0,1876.0,-106.0,-561.0
1831,-26.0,-462.0,477.0,1841.0,-259.0,-429.0
1832,104.0,-419.0,506.0,1738.0,-411.0,-334.0
1833,250.0,-393.0,526.0,1628.0,-501.0,-262.0
1834,397.0,-407.0,547.0,1513.0,-549.0,-204.0
1835,562.0,-443.0,550.0,1421.0,-559.0,-142.0
1836,913.0,-578.0,606.0,1328.0,-441.0,8.0
1837,496.0,-405.0,-65.0,-733.0,382.0,-215.0
1838,-3.0,-397.0,-65.0,-1064.0,761.0,-88.0
1839,-159.0,-482.0,-57.0,-1395.0,578.0,353.0
1840,73.0,-761.0,-78.0,-1623.0,194.0,747.0
1841,326.0,-820.0,-121.0,-1559.0,157.0,728.0
1842,169.0,-506.0,-89.0,-1411.0,516.0,426.0
1843,-179.0,-438.0,-73.0,-1600.0,800.0,280.0
1844,-290.0,-543.0,-118.0,-1864.0,695.0,506.0
1845,-289.0,-536.0,-150.0,-1992.0,531.0,824.0
1846,-366.0,-539.0,-147.0,-2146.0,452.0,1016.0
1847,-360.0,-632.0,-150.0,-2342.0,286.0,1074.0
1848,-306.0,-700.0,-148.0,-2473.0,108.0,1069.0
1849,-287.0,-722.0,-122.0,-2553.0,-29.0,1090.0
1850,-213.0,-780.0,-118.0,-2638.0,-182.0,1156.0
1851,-149.0,-785.0,-105.0,-2693.0,-286.0,1200.0
1852,334.0,-1644.0,386.0,-3040.0,-732.0,1180.0
1853,321.0,-1279.0,510.0,-2568.0,-248.0,744.0
1854,426.0,-1186.0,615.0,-2031.0,-274.0,407.0
1855,366.0,-1156.0,596.0,-1966.0,-294.0,331.0
1856,250.0,-1166.0,613.0,-1877.0,-322.0,246.0
1857,115.0,-957.0,598.0,-1754.0,-369.0,221.0
1858,241.0,-1184.0,579.0,-1810.0,-483.0,317.0
1859,263.0,-1346.0,638.0,-1648.0,-456.0,319.0
1860,164.0,-1067.0,671.0,-1271.0,-436.0,212.0
1861,275.0,-1029.0,633.0,-1145.0,-573.0,185.0
1862,286.0,-870.0,328.0,1115.0,-225.0,-988.0
1863,236.0,-900.0,6.0,947.0,-197.0,-961.0
1864,276.0,-938.0,-91.0,896.0,-171.0,-888.0
1865,303.0,-958.0,-125.0,871.0,-37.0,-812.0
1866,248.0,-996.0,-131.0,866.0,133.0,-746.0
1867,198.0,-1043.0,-124.0,916.0,224.0,-719.0
1868,175.0,-1066.0,-181.0,1035.0,249.0,-739.0
1869,89.0,-850.0,-82.0,1208.0,210.0,-736.0
1870,232.0,-852.0,155.0,1165.0,-28.0,-640.0
1871,168.0,-967.0,128.0,957.0,-46.0,-567.0
1872,118.0,-1013.0,-59.0,861.0,13.0,-602.0
1873,205.0,-929.0,183.0,498.0,95.0,236.0
1874,184.0,-962.0,190.0,170.0,150.0,-82.0
1875,205.0,-936.0,199.0,191.0,133.0,-35.0
1876,196.0,-920.0,210.0,200.0,151.0,25.0
1877,160.0,-908.0,223.0,200.0,168.0,83.0
1878,95.0,-922.0,237.0,191.0,167.0,110.0
1879,108.0,-949.0,238.0,163.0,138.0,74.0
1880,119.0,-949.0,229.0,138.0,115.0,39.0
1881,72.0,-932.0,247.0,117.0,112.0,18.0
1882,78.0,-934.0,249.0,87.0,86.0,-30.0
1883,109.0,-931.0,242.0,54.0,60.0,-74.0
1884,98.0,-930.0,244.0,26.0,53.0,-100.0
1885,166.0,-946.0,227.0,9.0,18.0,-62.0
1886,155.0,-1006.0,205.0,16.0,-12.0,-69.0
1887,168.0,-1022.0,179.0,46.0,-34.0,-55.0
1888,221.0,-971.0,191.0,98.0,-86.0,-10.0
1889,183.0,-952.0,215.0,130.0,-97.0,61.0
1890,201.0,-940.0,239.0,138.0,-115.0,93.0
1891,162.0,-943.0,221.0,131.0,-100.0,112.0
1892,94.0,-941.0,250.0,130.0,-92.0,108.0
1893,121.0,-932.0,250.0,113.0,-120.0,68.0
1894,158.0,-943.0,241.0,91.0,-137.0,43.0
1895,174.0,-945.0,241.0,73.0,-132.0,35.0
1896,169.0,-948.0,238.0,53.0,-119.0,27.0
1897,200.0,-935.0,221.0,78.0,-117.0,-32.0
1898,179.0,-990.0,241.0,39.0,66.0,61.0
1899,143.0,-1020.0,247.0,28.0,73.0,54.0
1900,121.0,-1029.0,251.0,26.0,56.0,45.0
1901,106.0,-1033.0,254.0,28.0,23.0,44.0
1902,82.0,-1046.0,259.0,28.0,-12.0,45.0
1903,75.0,-1063.0,259.0,35.0,-59.0,36.0
1904,72.0,-1059.0,255.0,51.0,-104.0,17.0
1905,52.0,-1047.0,263.0,76.0,-145.0,27.0
1906,-187.0,-961.0,362.0,543.0,-754.0,766.0
1907,-248.0,-924.0,378.0,508.0,-916.0,959.0
1908,-531.0,-975.0,478.0,441.0,-1086.0,1175.0
1909,-569.0,-1072.0,507.0,414.0,-1501.0,1483.0
1910,-521.0,-1083.0,462.0,443.0,-1999.0,1832.0
1911,-350.0,-1130.0,352.0,434.0,-2517.0,2064.0
1912,-269.0,-1238.0,242.0,428.0,-2990.0,2168.0
1913,-143.0,-1201.0,111.0,508.0,-3504.0,2224.0
1914,115.0,-1212.0,-52.0,504.0,-3984.0,2239.0
1915,216.0,-1299.0,-189.0,503.0,-4226.0,2224.0
1916,275.0,-1180.0,-301.0,632.0,-4410.0,2121.0
1917,154.0,-869.0,-838.0,-661.0,-4595.0,1201.0
1918,0.0,-1262.0,290.0,33.0,94.0,236.0
1919,208.0,-1347.0,101.0,-33.0,-64.0,77.0
1920,168.0,-1362.0,62.0,-4.0,-10.0,5.0
1921,105.0,-1267.0,89.0,64.0,40.0,-72.0
1922,65.0,-1115.0,190.0,107.0,32.0,-174.0
1923,71.0,-1026.0,207.0,75.0,13.0,-292.0
1924,82.0,-994.0,187.0,51.0,0.0,-389.0
1925,129.0,-927.0,224.0,69.0,-49.0,-439.0
1926,211.0,-897.0,224.0,63.0,-98.0,-434.0
1927,236.0,-906.0,204.0,50.0,-107.0,-376.0
1928,289.0,-916.0,177.0,51.0,-109.0,-296.0
1929,267.0,-926.0,194.0,4.0,-19.0,-99.0
1930,128.0,-906.0,216.0,-94.0,139.0,58.0
1931,126.0,-909.0,216.0,-104.0,122.0,27.0
1932,141.0,-932.0,196.0,-118.0,105.0,-12.0
1933,166.0,-942.0,185.0,-116.0,87.0,-37.0
1934,164.0,-950.0,188.0,-107.0,82.0,-44.0
1935,174.0,-954.0,187.0,-102.0,74.0,-53.0
1936,200.0,-956.0,179.0,-97.0,66.0,-53.0
1937,212.0,-959.0,174.0,-90.0,70.0,-37.0
1938,214.0,-967.0,169.0,-81.0,83.0,-16.0
1939,187.0,-983.0,160.0,5.0,131.0,18.0
1940,183.0,-957.0,185.0,-3.0,66.0,-40.0
1941,178.0,-951.0,189.0,-4.0,68.0,-35.0
1942,174.0,-952.0,190.0,-7.0,71.0,-34.0
1943,182.0,-955.0,187.0,-11.0,68.0,-34.0
1944,187.0,-962.0,179.0,-13.0,66.0,-30.0
1945,175.0,-961.0,182.0,-8.0,69.0,-26.0
1946,171.0,-961.0,182.0,-5.0,68.0,-27.0
1947,170.0,-959.0,186.0,-5.0,65.0,-35.0
1948,176.0,-960.0,183.0,-8.0,63.0,-43.0
1949,166.0,-955.0,190.0,-10.0,65.0,-48.0
1950,169.0,-954.0,192.0,-15.0,63.0,-55.0
1951,200.0,-985.0,171.0,42.0,49.0,-9.0
1952,204.0,-971.0,183.0,52.0,46.0,11.0
1953,213.0,-972.0,180.0,48.0,48.0,34.0
1954,204.0,-971.0,181.0,46.0,54.0,56.0
1955,196.0,-980.0,173.0,40.0,60.0,70.0
1956,183.0,-975.0,179.0,37.0,68.0,74.0
1957,162.0,-966.0,187.0,32.0,71.0,69.0
1958,173.0,-959.0,190.0,23.0,67.0,52.0
1959,170.0,-950.0,198.0,13.0,69.0,40.0
1960,179.0,-986.0,189.0,65.0,69.0,-58.0
1961,156.0,-1093.0,207.0,126.0,-66.0,-59.0
1962,176.0,-1114.0,204.0,161.0,-98.0,-76.0
1963,174.0,-1144.0,208.0,228.0,-99.0,-78.0
1964,193.0,-1185.0,197.0,318.0,-105.0,-73.0
1965,212.0,-1211.0,206.0,430.0,-101.0,-49.0
1966,192.0,-1270.0,218.0,537.0,-77.0,-6.0
1967,200.0,-1332.0,218.0,679.0,-75.0,65.0
1968,208.0,-1413.0,232.0,849.0,-58.0,112.0
1969,223.0,-1498.0,248.0,1053.0,-27.0,122.0
1970,286.0,-1478.0,220.0,1281.0,33.0,36.0
1971,294.0,-1445.0,224.0,1418.0,140.0,-100.0
1972,380.0,-554.0,-814.0,-1475.0,-831.0,591.0
1973,138.0,-1156.0,-169.0,-2402.0,252.0,647.0
1974,176.0,-1314.0,-31.0,-2242.0,-811.0,316.0
1975,207.0,-1310.0,2.0,-2197.0,-845.0,291.0
1976,260.0,-1306.0,24.0,-2160.0,-850.0,268.0
1977,339.0,-1329.0,99.0,-2119.0,-810.0,256.0
1978,375.0,-1331.0,155.0,-2044.0,-698.0,233.0
1979,485.0,-1264.0,204.0,-1940.0,-566.0,215.0
1980,474.0,-1256.0,249.0,-1872.0,-340.0,187.0
1981,409.0,-1191.0,263.0,-1778.0,-99.0,142.0
1982,387.0,-1165.0,309.0,-1704.0,105.0,134.0
1983,56.0,-908.0,-149.0,43.0,-113.0,-185.0
1984,44.0,-890.0,-181.0,85.0,-103.0,-172.0
1985,30.0,-892.0,-194.0,116.0,-107.0,-171.0
1986,13.0,-867.0,-225.0,153.0,-123.0,-177.0
1987,33.0,-872.0,-236.0,166.0,-150.0,-181.0
1988,62.0,-901.0,-220.0,168.0,-169.0,-187.0
1989,82.0,-943.0,-227.0,184.0,-169.0,-194.0
1990,119.0,-934.0,-256.0,226.0,-174.0,-201.0
1991,163.0,-929.0,-283.0,259.0,-185.0,-215.0
1992,143.0,-930.0,-308.0,291.0,-192.0,-255.0
1993,131.0,-917.0,-335.0,322.0,-229.0,-312.0
1994,-75.0,-1021.0,-43.0,430.0,114.0,-137.0
1995,316.0,-923.0,-216.0,1629.0,951.0,-299.0
1996,151.0,-1030.0,0.0,1272.0,746.0,-299.0
1997,186.0,-1052.0,36.0,1208.0,666.0,-361.0
1998,143.0,-989.0,58.0,1206.0,603.0,-377.0
1999,139.0,-1012.0,13.0,1140.0,493.0,-413.0
2000,70.0,-1026.0,-103.0,1104.0,440.0,-464.0
2001,44.0,-1023.0,-244.0,1104.0,409.0,-560.0
2002,103.0,-996.0,-243.0,1132.0,357.0,-661.0
2003,162.0,-964.0,-172.0,1160.0,310.0,-720.0
2004,244.0,-943.0,-90.0,1174.0,283.0,-750.0
2005,295.0,-934.0,0.0,1175.0,306.0,-753.0
2006,332.0,-932.0,18.0,1149.0,357.0,-740.0
2007,280.0,-975.0,-32.0,1108.0,415.0,-708.0
2008,236.0,-1015.0,-88.0,1090.0,419.0,-689.0
2009,223.0,-999.0,-126.0,1111.0,372.0,-689.0
2010,309.0,-915.0,107.0,535.0,86.0,188.0
2011,266.0,-949.0,144.0,56.0,55.0,-118.0
2012,266.0,-959.0,124.0,47.0,50.0,-123.0
2013,254.0,-947.0,150.0,55.0,50.0,-123.0
2014,280.0,-947.0,144.0,49.0,36.0,-130.0
2015,296.0,-956.0,115.0,46.0,38.0,-122.0
2016,279.0,-942.0,129.0,63.0,53.0,-103.0
2017,270.0,-931.0,159.0,70.0,55.0,-97.0
2018,260.0,-963.0,147.0,44.0,59.0,-107.0
2019,255.0,-961.0,140.0,37.0,61.0,-127.0
2020,244.0,-945.0,179.0,44.0,53.0,-142.0
2021,183.0,-975.0,163.0,11.0,61.0,-192.0
2022,321.0,-919.0,131.0,146.0,93.0,172.0
2023,82.0,-964.0,222.0,142.0,116.0,448.0
2024,97.0,-946.0,226.0,98.0,116.0,300.0
2025,138.0,-946.0,220.0,32.0,104.0,156.0
2026,187.0,-930.0,212.0,-23.0,102.0,55.0
2027,190.0,-931.0,206.0,-68.0,113.0,-2.0
2028,178.0,-941.0,198.0,-102.0,114.0,-46.0
2029,252.0,-960.0,153.0,-126.0,91.0,-80.0
2030,296.0,-942.0,158.0,-101.0,65.0,-44.0
2031,337.0,-991.0,131.0,-80.0,61.0,33.0
2032,337.0,-1051.0,60.0,-11.0,64.0,127.0
2033,293.0,-986.0,143.0,126.0,68.0,222.0
2034,234.0,-959.0,188.0,45.0,65.0,-71.0
2035,197.0,-957.0,203.0,114.0,88.0,70.0
2036,212.0,-970.0,190.0,107.0,93.0,45.0
2037,212.0,-973.0,199.0,112.0,106.0,30.0
2038,216.0,-978.0,199.0,112.0,115.0,17.0
2039,224.0,-981.0,197.0,116.0,119.0,9.0
2040,243.0,-979.0,193.0,127.0,126.0,10.0
2041,236.0,-961.0,209.0,147.0,138.0,23.0
2042,210.0,-981.0,191.0,151.0,160.0,31.0
2043,216.0,-970.0,200.0,171.0,160.0,26.0
2044,230.0,-946.0,218.0,192.0,156.0,40.0
2045,202.0,-943.0,226.0,200.0,164.0,60.0
2046,187.0,-1155.0,295.0,685.0,133.0,-76.0
2047,-5.0,-1187.0,353.0,1199.0,242.0,-595.0
2048,1.0,-1155.0,367.0,1276.0,202.0,-554.0
2049,83.0,-1111.0,354.0,1358.0,143.0,-470.0
2050,170.0,-1059.0,335.0,1427.0,101.0,-426.0
2051,246.0,-1049.0,327.0,1461.0,83.0,-439.0
2052,300.0,-1066.0,336.0,1499.0,91.0,-481.0
2053,368.0,-1110.0,344.0,1553.0,117.0,-540.0
2054,425.0,-1120.0,348.0,1646.0,178.0,-608.0
2055,433.0,-1140.0,344.0,1725.0,256.0,-656.0
2056,250.0,-768.0,318.0,2805.0,233.0,-388.0
2057,348.0,-986.0,48.0,-3516.0,-548.0,1433.0
2058,388.0,-1112.0,113.0,-3565.0,-427.0,1396.0
2059,342.0,-1241.0,202.0,-3559.0,-282.0,1364.0
2060,284.0,-1324.0,285.0,-3490.0,-203.0,1355.0
2061,257.0,-1379.0,333.0,-3402.0,-205.0,1358.0
2062,283.0,-1407.0,356.0,-3321.0,-266.0,1343.0
2063,308.0,-1442.0,379.0,-3267.0,-334.0,1292.0
2064,333.0,-1501.0,403.0,-3227.0,-403.0,1208.0
2065,369.0,-1524.0,430.0,-3145.0,-460.0,1120.0
2066,411.0,-1544.0,445.0,-3043.0,-478.0,1057.0
2067,474.0,-1532.0,444.0,-2931.0,-463.0,1006.0
2068,308.0,-1200.0,526.0,-1962.0,575.0,122.0
2069,22.0,-1033.0,730.0,-752.0,306.0,-23.0
2070,-63.0,-885.0,713.0,-622.0,194.0,-67.0
2071,-41.0,-1077.0,673.0,-630.0,4.0,-78.0
2072,-110.0,-1352.0,680.0,-417.0,-142.0,-117.0
2073,-54.0,-1140.0,706.0,77.0,-377.0,-208.0
2074,14.0,-1281.0,715.0,408.0,-565.0,-263.0
2075,105.0,-1304.0,736.0,875.0,-680.0,-349.0
2076,174.0,-840.0,729.0,1343.0,-713.0,-462.0
2077,215.0,-699.0,583.0,1290.0,-651.0,-481.0
2078,262.0,-853.0,277.0,1053.0,-568.0,-453.0
2079,259.0,-1048.0,-98.0,954.0,-420.0,-433.0
2080,174.0,-1674.0,-1104.0,1147.0,-25.0,-449.0
2081,213.0,-967.0,-2.0,1018.0,84.0,-752.0
2082,217.0,-948.0,-16.0,1008.0,111.0,-759.0
2083,300.0,-919.0,-53.0,990.0,166.0,-754.0
2084,221.0,-961.0,-35.0,941.0,296.0,-719.0
2085,162.0,-977.0,31.0,895.0,382.0,-745.0
2086,167.0,-999.0,14.0,842.0,373.0,-794.0
2087,161.0,-992.0,-11.0,814.0,376.0,-822.0
2088,225.0,-966.0,38.0,782.0,353.0,-829.0
2089,271.0,-945.0,68.0,734.0,336.0,-787.0
2090,295.0,-924.0,78.0,690.0,321.0,-716.0
2091,249.0,-918.0,103.0,649.0,295.0,-631.0
2092,306.0,-934.0,113.0,354.0,33.0,21.0
2093,325.0,-923.0,125.0,356.0,26.0,50.0
2094,307.0,-924.0,132.0,346.0,41.0,82.0
2095,333.0,-916.0,122.0,333.0,42.0,113.0
2096,291.0,-911.0,149.0,313.0,75.0,146.0
2097,272.0,-924.0,155.0,289.0,89.0,160.0
2098,274.0,-935.0,157.0,269.0,92.0,155.0
2099,280.0,-949.0,152.0,255.0,92.0,153.0
2100,244.0,-951.0,166.0,246.0,103.0,147.0
2101,293.0,-934.0,144.0,273.0,68.0,239.0
2102,233.0,-916.0,227.0,306.0,71.0,291.0
2103,262.0,-935.0,197.0,274.0,58.0,288.0
2104,196.0,-931.0,224.0,261.0,78.0,297.0
2105,164.0,-923.0,241.0,245.0,79.0,275.0
2106,143.0,-929.0,242.0,212.0,77.0,223.0
2107,173.0,-939.0,234.0,180.0,56.0,162.0
2108,212.0,-941.0,218.0,151.0,43.0,127.0
2109,193.0,-930.0,217.0,137.0,44.0,121.0
2110,202.0,-922.0,222.0,125.0,35.0,114.0
2111,240.0,-916.0,219.0,122.0,12.0,131.0
2112,235.0,-922.0,227.0,-18.0,52.0,-46.0
2113,190.0,-957.0,239.0,-62.0,102.0,5.0
2114,209.0,-969.0,221.0,-16.0,112.0,-14.0
2115,214.0,-964.0,223.0,0.0,111.0,-13.0
2116,219.0,-970.0,213.0,7.0,116.0,-7.0
2117,211.0,-967.0,205.0,21.0,123.0,2.0
2118,194.0,-954.0,217.0,42.0,126.0,8.0
2119,204.0,-925.0,230.0,54.0,117.0,13.0
2120,224.0,-923.0,234.0,55.0,110.0,27.0
2121,245.0,-926.0,231.0,54.0,116.0,54.0
2122,238.0,-931.0,235.0,56.0,133.0,84.0
2123,230.0,-942.0,235.0,53.0,154.0,104.0
2124,175.0,-956.0,242.0,21.0,234.0,133.0
2125,291.0,-1123.0,319.0,1025.0,-29.0,-551.0
2126,218.0,-1168.0,343.0,1041.0,70.0,-484.0
2127,241.0,-1163.0,354.0,1080.0,114.0,-462.0
2128,165.0,-1240.0,367.0,1121.0,193.0,-474.0
2129,155.0,-1240.0,360.0,1224.0,209.0,-464.0
2130,161.0,-1266.0,348.0,1308.0,210.0,-472.0
2131,217.0,-1327.0,354.0,1395.0,200.0,-507.0
2132,318.0,-1399.0,366.0,1521.0,214.0,-587.0
2133,346.0,-1393.0,324.0,1687.0,284.0,-686.0
2134,407.0,-1465.0,317.0,1813.0,355.0,-771.0
2135,395.0,-1527.0,305.0,1962.0,461.0,-859.0
2136,414.0,-1611.0,404.0,2316.0,621.0,-1000.0
2137,-318.0,-102.0,-190.0,-830.0,497.0,566.0
2138,-336.0,-114.0,-209.0,-1134.0,289.0,562.0
2139,-433.0,-101.0,-202.0,-1407.0,86.0,637.0
2140,-429.0,-158.0,-214.0,-1708.0,-221.0,782.0
2141,-306.0,-272.0,-220.0,-2001.0,-544.0,948.0
2142,-200.0,-360.0,-193.0,-2211.0,-750.0,1057.0
2143,-76.0,-442.0,-169.0,-2369.0,-894.0,1099.0
2144,58.0,-530.0,-121.0,-2493.0,-963.0,1097.0
2145,167.0,-607.0,-49.0,-2574.0,-938.0,1105.0
2146,263.0,-645.0,21.0,-2618.0,-848.0,1148.0
2147,288.0,-713.0,80.0,-2689.0,-704.0,1197.0
2148,311.0,-787.0,132.0,-2774.0,-588.0,1233.0
2149,321.0,-857.0,197.0,-2868.0,-503.0,1248.0
2150,324.0,-949.0,286.0,-2976.0,-460.0,1247.0
2151,339.0,-1074.0,366.0,-3070.0,-460.0,1251.0
2152,387.0,-1318.0,480.0,-3042.0,-517.0,1243.0
2153,315.0,-1209.0,531.0,-1411.0,-613.0,182.0
2154,334.0,-1197.0,542.0,-1287.0,-592.0,103.0
2155,313.0,-1190.0,526.0,-1144.0,-555.0,22.0
2156,236.0,-1089.0,520.0,-979.0,-503.0,-53.0
2157,99.0,-1026.0,536.0,-886.0,-488.0,-164.0
2158,6.0,-1085.0,548.0,-850.0,-590.0,-297.0
2159,5.0,-995.0,545.0,-722.0,-785.0,-342.0
2160,78.0,-927.0,522.0,-644.0,-986.0,-315.0
2161,277.0,-1038.0,472.0,-626.0,-1142.0,-278.0
2162,339.0,-1104.0,446.0,-484.0,-1076.0,-250.0
2163,236.0,-1023.0,410.0,-249.0,-922.0,-281.0
2164,243.0,-957.0,323.0,-72.0,-894.0,-339.0
2165,218.0,-1097.0,287.0,38.0,-876.0,-383.0
2166,180.0,-1104.0,305.0,306.0,-876.0,-449.0
2167,186.0,-1017.0,355.0,602.0,-900.0,-474.0
2168,182.0,-983.0,127.0,272.0,61.0,154.0
2169,222.0,-979.0,123.0,294.0,48.0,174.0
2170,282.0,-979.0,122.0,318.0,23.0,236.0
2171,310.0,-1002.0,46.0,333.0,29.0,338.0
2172,178.0,-964.0,107.0,376.0,96.0,427.0
2173,115.0,-932.0,216.0,360.0,101.0,394.0
2174,56.0,-974.0,181.0,288.0,117.0,296.0
2175,47.0,-953.0,215.0,241.0,149.0,187.0
2176,64.0,-948.0,213.0,194.0,144.0,88.0
2177,94.0,-965.0,198.0,151.0,146.0,10.0
2178,111.0,-1000.0,148.0,113.0,160.0,-53.0
2179,151.0,-963.0,182.0,12.0,106.0,-181.0
2180,181.0,-927.0,192.0,19.0,114.0,-90.0
2181,188.0,-923.0,184.0,20.0,107.0,-76.0
2182,174.0,-935.0,185.0,20.0,110.0,-65.0
2183,174.0,-949.0,185.0,22.0,106.0,-61.0
2184,168.0,-959.0,188.0,25.0,97.0,-54.0
2185,174.0,-954.0,187.0,30.0,81.0,-44.0
2186,197.0,-953.0,177.0,33.0,67.0,-34.0
2187,194.0,-952.0,180.0,35.0,70.0,-23.0
2188,185.0,-956.0,184.0,37.0,72.0,-13.0
2189,189.0,-959.0,186.0,42.0,69.0,-4.0
2190,211.0,-952.0,175.0,53.0,66.0,17.0
2191,171.0,-959.0,188.0,11.0,173.0,-98.0
2192,183.0,-945.0,194.0,9.0,167.0,-103.0
2193,175.0,-936.0,200.0,6.0,166.0,-97.0
2194,176.0,-924.0,208.0,5.0,163.0,-90.0
2195,158.0,-932.0,214.0,1.0,159.0,-76.0
2196,203.0,-934.0,199.0,-1.0,141.0,-68.0
2197,190.0,-953.0,195.0,-7.0,156.0,-61.0
2198,163.0,-962.0,194.0,-10.0,169.0,-63.0
2199,176.0,-961.0,191.0,-7.0,156.0,-63.0
2200,189.0,-953.0,199.0,1.0,128.0,-55.0
2201,195.0,-941.0,207.0,31.0,-37.0,-25.0
2202,189.0,-947.0,206.0,16.0,-30.0,-34.0
2203,185.0,-948.0,209.0,-2.0,-25.0,-50.0
2204,173.0,-955.0,211.0,-20.0,-19.0,-62.0
2205,166.0,-960.0,208.0,-34.0,-20.0,-77.0
2206,190.0,-952.0,206.0,-43.0,-32.0,-91.0
2207,195.0,-951.0,204.0,-52.0,-30.0,-95.0
2208,203.0,-945.0,195.0,-60.0,-28.0,-96.0
2209,222.0,-956.0,166.0,-216.0,-63.0,-161.0
2210,243.0,-960.0,138.0,-117.0,-92.0,-118.0
2211,246.0,-957.0,141.0,-105.0,-92.0,-112.0
2212,246.0,-961.0,144.0,-96.0,-91.0,-107.0
2213,247.0,-954.0,144.0,-89.0,-93.0,-100.0
2214,222.0,-959.0,147.0,-82.0,-91.0,-98.0
2215,238.0,-959.0,148.0,-81.0,-105.0,-112.0
2216,255.0,-961.0,138.0,-82.0,-109.0,-118.0
2217,256.0,-964.0,133.0,-81.0,-104.0,-115.0
2218,262.0,-961.0,131.0,-78.0,-103.0,-113.0
2219,279.0,-956.0,128.0,-74.0,-97.0,-108.0
2220,282.0,-957.0,123.0,-71.0,-86.0,-94.0
2221,256.0,-954.0,109.0,-7.0,6.0,0.0
2222,266.0,-946.0,123.0,-92.0,15.0,-53.0
2223,264.0,-952.0,125.0,-99.0,18.0,-57.0
2224,274.0,-952.0,115.0,-102.0,22.0,-66.0
2225,277.0,-948.0,114.0,-102.0,22.0,-60.0
2226,276.0,-955.0,108.0,-99.0,18.0,-40.0
2227,260.0,-957.0,110.0,-91.0,10.0,-18.0
2228,255.0,-960.0,107.0,-85.0,-3.0,-5.0
2229,255.0,-957.0,111.0,-72.0,-25.0,8.0
2230,239.0,-939.0,137.0,-60.0,-50.0,19.0
2231,210.0,-948.0,140.0,-69.0,-75.0,21.0
2232,207.0,-956.0,128.0,-69.0,-121.0,29.0
2233,-80.0,-1060.0,67.0,-180.0,-1187.0,451.0
2234,262.0,-1135.0,-395.0,786.0,-6101.0,891.0
2235,300.0,-1115.0,-451.0,924.0,-6174.0,769.0
2236,411.0,-1010.0,-516.0,1044.0,-6209.0,539.0
2237,460.0,-965.0,-556.0,1075.0,-6108.0,334.0
2238,474.0,-928.0,-589.0,1064.0,-5926.0,118.0
2239,393.0,-794.0,-563.0,1042.0,-5672.0,-105.0
2240,340.0,-793.0,-546.0,900.0,-5427.0,-188.0
2241,320.0,-858.0,-513.0,767.0,-5210.0,-99.0
2242,297.0,-850.0,-450.0,694.0,-4958.0,37.0
2243,276.0,-909.0,-387.0,598.0,-4684.0,117.0
2244,265.0,-892.0,-357.0,549.0,-4426.0,183.0
2245,154.0,-1059.0,7.0,204.0,-4769.0,-101.0
2246,374.0,-875.0,307.0,325.0,-1822.0,-251.0
2247,327.0,-858.0,316.0,399.0,-1661.0,-304.0
2248,343.0,-907.0,325.0,467.0,-1537.0,-343.0
2249,440.0,-1023.0,399.0,592.0,-1441.0,-367.0
2250,469.0,-1061.0,541.0,809.0,-1268.0,-404.0
2251,451.0,-884.0,672.0,1014.0,-1027.0,-343.0
2252,373.0,-794.0,591.0,919.0,-720.0,-171.0
2253,115.0,-881.0,284.0,669.0,-377.0,-7.0
2254,-9.0,-1018.0,19.0,532.0,-206.0,61.0
2255,-20.0,-1181.0,-69.0,535.0,-130.0,36.0
2256,94.0,-1293.0,-27.0,674.0,-79.0,-52.0
2257,162.0,-888.0,180.0,145.0,30.0,-207.0
2258,167.0,-893.0,203.0,121.0,16.0,-190.0
2259,196.0,-917.0,204.0,77.0,1.0,-186.0
2260,237.0,-947.0,155.0,32.0,-13.0,-171.0
2261,186.0,-987.0,138.0,12.0,3.0,-146.0
2262,175.0,-1008.0,154.0,13.0,-8.0,-154.0
2263,217.0,-1043.0,105.0,5.0,-37.0,-178.0
2264,247.0,-1023.0,118.0,30.0,-40.0,-177.0
2265,255.0,-983.0,166.0,48.0,-32.0,-152.0
2266,193.0,-963.0,176.0,22.0,8.0,-108.0
2267,248.0,-953.0,148.0,52.0,22.0,-83.0
2268,247.0,-945.0,157.0,57.0,29.0,-69.0
2269,232.0,-955.0,156.0,54.0,40.0,-56.0
2270,230.0,-957.0,151.0,51.0,42.0,-55.0
2271,227.0,-948.0,156.0,52.0,45.0,-51.0
2272,220.0,-948.0,167.0,50.0,47.0,-49.0
2273,244.0,-966.0,146.0,38.0,42.0,-54.0
2274,254.0,-962.0,151.0,42.0,47.0,-43.0
2275,261.0,-967.0,153.0,43.0,56.0,-27.0
2276,269.0,-976.0,143.0,40.0,68.0,-6.0
2277,256.0,-964.0,147.0,49.0,85.0,24.0
2278,212.0,-945.0,175.0,50.0,12.0,-9.0
2279,218.0,-955.0,168.0,50.0,1.0,-9.0
2280,223.0,-961.0,165.0,54.0,-5.0,-4.0
2281,213.0,-973.0,165.0,61.0,-4.0,6.0
2282,221.0,-975.0,167.0,70.0,-11.0,7.0
2283,230.0,-980.0,161.0,73.0,-15.0,8.0
2284,224.0,-974.0,168.0,82.0,-12.0,14.0
2285,207.0,-987.0,177.0,87.0,-7.0,18.0
2286,191.0,-1542.0,245.0,1135.0,236.0,-9.0
2287,152.0,-1554.0,226.0,1317.0,285.0,-78.0
2288,80.0,-1468.0,207.0,1502.0,314.0,-98.0
2289,-33.0,-1332.0,183.0,1621.0,279.0,-86.0
2290,-19.0,-1226.0,148.0,1669.0,84.0,-19.0
2291,-3.0,-1095.0,89.0,1702.0,-108.0,52.0
2292,-66.0,-1047.0,56.0,1672.0,-214.0,128.0
2293,-98.0,-871.0,-7.0,1656.0,-396.0,247.0
2294,-6.0,-622.0,-155.0,1505.0,-656.0,396.0
2295,124.0,-427.0,-615.0,1122.0,-841.0,478.0
2296,293.0,-319.0,-992.0,605.0,-824.0,454.0
2297,1.0,-1306.0,-68.0,-2389.0,-377.0,471.0
2298,52.0,-1100.0,353.0,-1017.0,497.0,103.0
2299,53.0,-1054.0,284.0,-827.0,406.0,81.0
2300,80.0,-970.0,184.0,-663.0,302.0,37.0
2301,91.0,-913.0,114.0,-568.0,216.0,-9.0
2302,58.0,-866.0,62.0,-528.0,143.0,-78.0
2303,59.0,-915.0,12.0,-524.0,49.0,-138.0
2304,43.0,-966.0,17.0,-470.0,-23.0,-163.0
2305,70.0,-946.0,31.0,-363.0,-98.0,-172.0
2306,82.0,-911.0,49.0,-273.0,-139.0,-178.0
2307,102.0,-908.0,48.0,-216.0,-147.0,-170.0
2308,90.0,-922.0,40.0,-161.0,-125.0,-188.0
2309,40.0,-1256.0,-509.0,1332.0,412.0,-403.0
2310,212.0,-1009.0,-132.0,980.0,409.0,-599.0
2311,216.0,-965.0,-108.0,992.0,307.0,-556.0
2312,221.0,-948.0,-90.0,1002.0,231.0,-521.0
2313,216.0,-941.0,-85.0,1001.0,205.0,-499.0
2314,253.0,-925.0,-22.0,998.0,188.0,-480.0
2315,278.0,-918.0,9.0,968.0,206.0,-452.0
2316,243.0,-916.0,6.0,913.0,258.0,-419.0
2317,229.0,-957.0,-8.0,848.0,273.0,-392.0
2318,227.0,-958.0,-11.0,810.0,267.0,-371.0
2319,215.0,-927.0,45.0,783.0,251.0,-349.0
2320,228.0,-939.0,90.0,730.0,205.0,-324.0
2321,237.0,-952.0,65.0,669.0,173.0,-308.0
2322,225.0,-964.0,24.0,617.0,157.0,-294.0
2323,286.0,-939.0,105.0,313.0,47.0,-108.0
2324,309.0,-942.0,95.0,317.0,43.0,-67.0
2325,289.0,-951.0,100.0,331.0,46.0,-19.0
2326,309.0,-967.0,79.0,351.0,29.0,24.0
2327,328.0,-957.0,81.0,384.0,24.0,77.0
2328,306.0,-856.0,172.0,404.0,31.0,136.0
2329,161.0,-923.0,207.0,315.0,71.0,144.0
2330,218.0,-962.0,130.0,220.0,80.0,46.0
2331,210.0,-943.0,161.0,194.0,102.0,-5.0
2332,195.0,-954.0,152.0,153.0,110.0,-49.0
2333,237.0,-956.0,142.0,115.0,110.0,-112.0
2334,283.0,-962.0,127.0,77.0,132.0,-134.0
2335,254.0,-929.0,174.0,154.0,44.0,169.0
2336,206.0,-948.0,197.0,108.0,100.0,181.0
2337,210.0,-962.0,184.0,83.0,107.0,135.0
2338,223.0,-963.0,182.0,65.0,112.0,92.0
2339,215.0,-957.0,194.0,52.0,125.0,68.0
2340,210.0,-956.0,198.0,35.0,132.0,44.0
2341,208.0,-957.0,189.0,21.0,136.0,22.0
2342,229.0,-951.0,184.0,13.0,133.0,3.0
2343,243.0,-939.0,194.0,11.0,136.0,0.0
2344,249.0,-936.0,184.0,4.0,145.0,5.0
2345,251.0,-928.0,195.0,2.0,157.0,15.0
2346,228.0,-937.0,207.0,-2.0,176.0,25.0
2347,241.0,-954.0,198.0,196.0,75.0,11.0
2348,452.0,-1090.0,245.0,2663.0,248.0,-575.0
2349,488.0,-1046.0,244.0,2595.0,254.0,-523.0
2350,592.0,-1088.0,253.0,2499.0,232.0,-496.0
2351,620.0,-1084.0,261.0,2491.0,276.0,-499.0
2352,566.0,-1001.0,268.0,2530.0,349.0,-521.0
2353,502.0,-960.0,257.0,2521.0,390.0,-542.0
2354,415.0,-914.0,229.0,2526.0,433.0,-542.0
2355,312.0,-844.0,229.0,2558.0,455.0,-487.0
2356,236.0,-828.0,203.0,2596.0,425.0,-417.0
2357,186.0,-776.0,146.0,2684.0,364.0,-381.0
2358,158.0,-654.0,117.0,2771.0,311.0,-408.0
2359,39.0,-671.0,-102.0,-3211.0,460.0,1466.0
2360,412.0,-1734.0,272.0,-3478.0,-356.0,893.0
2361,418.0,-1834.0,337.0,-3417.0,-302.0,859.0
2362,500.0,-1874.0,371.0,-3254.0,-246.0,831.0
2363,660.0,-1777.0,398.0,-3036.0,-157.0,739.0
2364,805.0,-1674.0,424.0,-2875.0,30.0,608.0
2365,875.0,-1601.0,437.0,-2750.0,314.0,477.0
2366,797.0,-1443.0,479.0,-2629.0,655.0,330.0
2367,702.0,-1412.0,498.0,-2598.0,932.0,176.0
2368,263.0,-813.0,211.0,13.0,-94.0,-86.0
2369,268.0,-881.0,238.0,10.0,56.0,-74.0
2370,242.0,-913.0,256.0,72.0,191.0,-82.0
2371,204.0,-894.0,281.0,165.0,293.0,-97.0
2372,194.0,-901.0,295.0,237.0,350.0,-85.0
2373,109.0,-1299.0,299.0,368.0,389.0,-79.0
2374,170.0,-569.0,326.0,801.0,292.0,-93.0
2375,102.0,-882.0,159.0,539.0,302.0,-25.0
2376,120.0,-957.0,-105.0,486.0,275.0,-44.0
2377,46.0,-1455.0,-632.0,559.0,350.0,-113.0
2378,-37.0,-1808.0,-1274.0,1208.0,-379.0,72.0
2379,217.0,-953.0,-46.0,820.0,140.0,-262.0
2380,290.0,-945.0,26.0,579.0,114.0,-329.0
2381,283.0,-949.0,24.0,569.0,122.0,-295.0
2382,286.0,-937.0,44.0,559.0,117.0,-261.0
2383,277.0,-932.0,67.0,538.0,114.0,-229.0
2384,278.0,-922.0,87.0,507.0,119.0,-208.0
2385,303.0,-917.0,84.0,465.0,117.0,-182.0
2386,265.0,-939.0,61.0,422.0,137.0,-151.0
2387,271.0,-933.0,88.0,394.0,128.0,-151.0
2388,286.0,-946.0,67.0,357.0,120.0,-150.0
2389,289.0,-951.0,58.0,328.0,147.0,-146.0
2390,267.0,-936.0,92.0,312.0,176.0,-140.0
2391,270.0,-941.0,109.0,90.0,146.0,-30.0
2392,247.0,-939.0,139.0,97.0,98.0,140.0
2393,247.0,-927.0,143.0,86.0,83.0,137.0
2394,218.0,-948.0,136.0,56.0,85.0,115.0
2395,232.0,-952.0,127.0,31.0,87.0,72.0
2396,248.0,-951.0,118.0,21.0,81.0,42.0
2397,266.0,-949.0,119.0,10.0,90.0,25.0
2398,231.0,-952.0,140.0,0.0,113.0,15.0
2399,230.0,-958.0,139.0,-13.0,114.0,-7.0
2400,251.0,-954.0,132.0,-22.0,106.0,-17.0
2401,265.0,-951.0,128.0,-22.0,106.0,-10.0
2402,267.0,-973.0,117.0,171.0,62.0,52.0
2403,260.0,-947.0,156.0,204.0,58.0,73.0
2404,275.0,-953.0,144.0,200.0,52.0,87.0
2405,247.0,-948.0,158.0,202.0,65.0,102.0
2406,230.0,-950.0,158.0,193.0,79.0,97.0
2407,212.0,-949.0,154.0,176.0,92.0,74.0
2408,215.0,-949.0,163.0,158.0,99.0,51.0
2409,200.0,-949.0,164.0,140.0,104.0,31.0
2410,199.0,-954.0,171.0,127.0,97.0,3.0
2411,214.0,-966.0,159.0,111.0,90.0,-30.0
2412,230.0,-997.0,143.0,103.0,86.0,-53.0
2413,282.0,-993.0,143.0,165.0,82.0,-53.0
2414,223.0,-1306.0,195.0,953.0,189.0,-42.0
2415,205.0,-1483.0,277.0,1734.0,333.0,-493.0
2416,195.0,-1469.0,268.0,1850.0,313.0,-527.0
2417,192.0,-1494.0,272.0,1939.0,288.0,-588.0
2418,275.0,-1536.0,297.0,2055.0,258.0,-670.0
2419,287.0,-1569.0,351.0,2239.0,343.0,-787.0
2420,264.0,-1451.0,329.0,2452.0,415.0,-879.0
2421,231.0,-1364.0,256.0,2574.0,450.0,-923.0
2422,122.0,-1192.0,187.0,2686.0,495.0,-896.0
2423,128.0,-1095.0,185.0,2717.0,452.0,-807.0
2424,203.0,-1010.0,233.0,2734.0,376.0,-703.0
2425,248.0,-902.0,237.0,2702.0,335.0,-601.0
2426,294.0,-960.0,242.0,2429.0,280.0,-424.0
2427,69.0,-105.0,-246.0,-1762.0,535.0,1200.0
2428,260.0,-188.0,-355.0,-2171.0,660.0,1504.0
2429,287.0,-287.0,-406.0,-2554.0,970.0,1590.0
2430,216.0,-426.0,-399.0,-2881.0,1280.0,1560.0
2431,39.0,-582.0,-350.0,-3118.0,1500.0,1475.0
2432,-181.0,-679.0,-276.0,-3236.0,1547.0,1353.0
2433,-374.0,-773.0,-216.0,-3313.0,1384.0,1246.0
2434,-464.0,-850.0,-156.0,-3386.0,1036.0,1151.0
2435,-410.0,-963.0,-119.0,-3481.0,573.0,1062.0
2436,-289.0,-1033.0,-77.0,-3544.0,116.0,973.0
2437,-116.0,-1115.0,-35.0,-3610.0,-263.0,871.0
2438,149.0,-1269.0,4.0,-3742.0,-669.0,555.0
2439,806.0,-1666.0,647.0,-2609.0,-653.0,319.0
2440,993.0,-1443.0,868.0,-2453.0,-221.0,13.0
2441,688.0,-1552.0,1009.0,-2348.0,94.0,-63.0
2442,386.0,-1512.0,1063.0,-2046.0,230.0,-177.0
2443,188.0,-1350.0,1153.0,-1718.0,209.0,-309.0
2444,83.0,-1361.0,1259.0,-1485.0,109.0,-313.0
2445,145.0,-1310.0,1234.0,-1167.0,-43.0,-212.0
2446,198.0,-1002.0,26.0,1672.0,107.0,-613.0
2447,269.0,-908.0,115.0,679.0,184.0,-422.0
2448,275.0,-917.0,130.0,603.0,203.0,-334.0
2449,275.0,-915.0,143.0,544.0,186.0,-243.0
2450,255.0,-928.0,134.0,495.0,174.0,-154.0
2451,250.0,-963.0,104.0,460.0,161.0,-80.0
2452,298.0,-999.0,65.0,457.0,136.0,-12.0
2453,339.0,-1004.0,41.0,481.0,132.0,62.0
2454,313.0,-989.0,56.0,491.0,153.0,129.0
2455,267.0,-959.0,91.0,494.0,169.0,171.0
2456,203.0,-919.0,147.0,470.0,155.0,193.0
2457,247.0,-958.0,140.0,419.0,106.0,170.0
2458,154.0,-927.0,194.0,134.0,165.0,-147.0
2459,244.0,-945.0,174.0,51.0,74.0,-91.0
2460,261.0,-951.0,165.0,50.0,45.0,-55.0
2461,242.0,-956.0,180.0,60.0,52.0,-30.0
2462,233.0,-965.0,176.0,60.0,54.0,-19.0
2463,235.0,-966.0,174.0,64.0,53.0,-13.0
2464,233.0,-956.0,189.0,74.0,44.0,-3.0
2465,253.0,-968.0,177.0,76.0,40.0,13.0
2466,269.0,-970.0,171.0,91.0,35.0,47.0
2467,264.0,-966.0,168.0,115.0,37.0,99.0
2468,281.0,-953.0,169.0,152.0,39.0,173.0
2469,337.0,-899.0,173.0,210.0,16.0,303.0
2470,331.0,-889.0,197.0,258.0,24.0,472.0
2471,334.0,-910.0,202.0,282.0,34.0,624.0
2472,302.0,-928.0,199.0,296.0,65.0,749.0
2473,233.0,-952.0,211.0,300.0,116.0,822.0
2474,41.0,-1006.0,170.0,287.0,186.0,796.0
2475,138.0,-956.0,237.0,42.0,10.0,52.0
2476,135.0,-964.0,233.0,30.0,9.0,26.0
2477,130.0,-969.0,226.0,20.0,5.0,-7.0
2478,131.0,-969.0,227.0,16.0,-2.0,-38.0
2479,151.0,-968.0,220.0,9.0,-14.0,-68.0
2480,164.0,-961.0,221.0,6.0,-18.0,-86.0
2481,170.0,-956.0,232.0,4.0,-17.0,-96.0
2482,178.0,-954.0,232.0,-2.0,-12.0,-103.0
2483,169.0,-961.0,230.0,-9.0,-2.0,-107.0
2484,189.0,-953.0,230.0,-9.0,-1.0,-112.0
2485,178.0,-934.0,234.0,-11.0,14.0,-99.0
2486,200.0,-954.0,213.0,-41.0,2.0,-58.0
2487,196.0,-955.0,213.0,-36.0,1.0,-44.0
2488,201.0,-954.0,213.0,-32.0,-6.0,-34.0
2489,198.0,-949.0,212.0,-28.0,-8.0,-24.0
2490,175.0,-954.0,215.0,-26.0,-4.0,-18.0
2491,187.0,-951.0,216.0,-25.0,-11.0,-28.0
2492,167.0,-946.0,220.0,-26.0,-12.0,-38.0
2493,149.0,-955.0,222.0,-27.0,-19.0,-47.0
2494,197.0,-958.0,210.0,-22.0,-50.0,-61.0
2495,226.0,-956.0,204.0,-15.0,-54.0,-56.0
2496,235.0,-947.0,203.0,-8.0,-40.0,-39.0
2497,201.0,-967.0,213.0,8.0,-18.0,-16.0
2498,198.0,-1064.0,193.0,80.0,-202.0,-73.0
2499,183.0,-1020.0,222.0,108.0,-220.0,-55.0
2500,163.0,-1022.0,223.0,102.0,-240.0,-29.0
2501,165.0,-1029.0,221.0,109.0,-262.0,-24.0
2502,127.0,-1019.0,193.0,142.0,-252.0,5.0
2503,118.0,-1002.0,232.0,178.0,-265.0,23.0
2504,73.0,-1020.0,241.0,187.0,-258.0,71.0
2505,98.0,-1006.0,243.0,199.0,-282.0,126.0
2506,105.0,-1027.0,248.0,201.0,-290.0,149.0
2507,98.0,-1101.0,269.0,211.0,-296.0,194.0
2508,55.0,-1102.0,299.0,250.0,-309.0,238.0
2509,18.0,-1129.0,288.0,355.0,-373.0,294.0
2510,276.0,-1178.0,-466.0,898.0,-4638.0,1613.0
2511,276.0,-1099.0,-522.0,886.0,-4620.0,1501.0
2512,306.0,-1064.0,-561.0,818.0,-4582.0,1393.0
2513,336.0,-1025.0,-578.0,733.0,-4490.0,1305.0
2514,315.0,-1018.0,-584.0,637.0,-4347.0,1228.0
2515,328.0,-967.0,-600.0,571.0,-4207.0,1152.0
2516,251.0,-909.0,-599.0,501.0,-4047.0,1067.0
2517,141.0,-871.0,-603.0,401.0,-3940.0,980.0
2518,58.0,-872.0,-624.0,285.0,-3914.0,924.0
2519,596.0,-1172.0,-101.0,-1022.0,-4879.0,791.0
2520,716.0,-1171.0,4.0,-922.0,-4828.0,800.0
2521,825.0,-1192.0,138.0,-828.0,-4674.0,798.0
2522,915.0,-1194.0,263.0,-724.0,-4410.0,810.0
2523,1001.0,-1131.0,328.0,-626.0,-4076.0,860.0
2524,1083.0,-1072.0,346.0,-586.0,-3707.0,899.0
2525,1244.0,-1003.0,362.0,-560.0,-3370.0,875.0
2526,1370.0,-949.0,410.0,-537.0,-3013.0,787.0
2527,1488.0,-896.0,460.0,-492.0,-2651.0,643.0
2528,1422.0,-903.0,516.0,-433.0,-2221.0,467.0
2529,1201.0,-881.0,558.0,-339.0,-1813.0,288.0
2530,815.0,-975.0,662.0,-168.0,-1345.0,25.0
2531,233.0,-911.0,187.0,122.0,7.0,-355.0
2532,281.0,-885.0,206.0,111.0,0.0,-307.0
2533,265.0,-901.0,192.0,87.0,25.0,-231.0
2534,176.0,-929.0,193.0,64.0,65.0,-185.0
2535,154.0,-948.0,181.0,46.0,68.0,-198.0
2536,175.0,-949.0,185.0,35.0,54.0,-224.0
2537,165.0,-969.0,187.0,20.0,49.0,-243.0
2538,158.0,-979.0,187.0,9.0,32.0,-267.0
2539,178.0,-992.0,187.0,3.0,5.0,-294.0
2540,205.0,-1006.0,152.0,9.0,-20.0,-317.0
2541,224.0,-982.0,163.0,27.0,-37.0,-324.0
2542,244.0,-974.0,139.0,52.0,-50.0,-293.0
2543,269.0,-984.0,127.0,-16.0,33.0,-20.0
2544,258.0,-974.0,132.0,19.0,32.0,-10.0
2545,245.0,-956.0,152.0,46.0,29.0,-3.0
2546,247.0,-948.0,159.0,55.0,18.0,0.0
2547,253.0,-946.0,165.0,57.0,7.0,10.0
2548,254.0,-946.0,164.0,52.0,0.0,19.0
2549,265.0,-942.0,163.0,46.0,-7.0,28.0
2550,280.0,-943.0,157.0,40.0,-10.0,44.0
2551,292.0,-942.0,148.0,36.0,-2.0,67.0
2552,288.0,-932.0,156.0,31.0,13.0,91.0
2553,252.0,-937.0,163.0,19.0,35.0,109.0
2554,254.0,-955.0,153.0,22.0,70.0,61.0
2555,257.0,-953.0,153.0,24.0,75.0,69.0
2556,244.0,-953.0,159.0,24.0,87.0,77.0
2557,235.0,-949.0,161.0,22.0,94.0,79.0
2558,222.0,-947.0,169.0,20.0,97.0,75.0
2559,220.0,-955.0,168.0,15.0,95.0,63.0
2560,233.0,-959.0,161.0,12.0,88.0,51.0
2561,235.0,-962.0,159.0,13.0,86.0,48.0
2562,228.0,-969.0,156.0,15.0,87.0,47.0
2563,238.0,-960.0,164.0,22.0,81.0,41.0
2564,223.0,-1192.0,164.0,314.0,-114.0,29.0
2565,209.0,-1305.0,176.0,540.0,-161.0,95.0
2566,221.0,-1379.0,187.0,693.0,-183.0,151.0
2567,260.0,-1479.0,177.0,882.0,-171.0,202.0
2568,267.0,-1565.0,177.0,1123.0,-114.0,269.0
2569,329.0,-1576.0,160.0,1379.0,-71.0,297.0
2570,362.0,-1490.0,177.0,1577.0,11.0,221.0
2571,385.0,-1686.0,122.0,1636.0,152.0,-13.0
2572,197.0,-1485.0,153.0,1862.0,319.0,-95.0
2573,157.0,-1356.0,189.0,1995.0,301.0,-101.0
2574,122.0,-757.0,-581.0,-2030.0,-295.0,1230.0
2575,101.0,-854.0,-481.0,-2170.0,-283.0,1198.0
2576,124.0,-932.0,-409.0,-2268.0,-340.0,1141.0
2577,155.0,-1008.0,-356.0,-2345.0,-419.0,1082.0
2578,196.0,-1092.0,-303.0,-2409.0,-505.0,1024.0
2579,266.0,-1182.0,-253.0,-2444.0,-596.0,969.0
2580,337.0,-1245.0,-200.0,-2432.0,-665.0,903.0
2581,379.0,-1253.0,-148.0,-2385.0,-713.0,810.0
2582,410.0,-1239.0,-119.0,-2346.0,-764.0,714.0
2583,629.0,-1074.0,445.0,-1531.0,111.0,118.0
2584,506.0,-1082.0,439.0,-1491.0,513.0,110.0
2585,301.0,-1093.0,440.0,-1418.0,812.0,70.0
2586,123.0,-1114.0,447.0,-1305.0,960.0,49.0
2587,11.0,-1131.0,452.0,-1157.0,958.0,34.0
2588,-72.0,-1114.0,425.0,-978.0,854.0,-2.0
2589,-194.0,-1052.0,377.0,-802.0,681.0,-41.0
2590,-185.0,-1052.0,308.0,-673.0,403.0,-59.0
2591,-140.0,-997.0,258.0,-537.0,131.0,-79.0
2592,-70.0,-972.0,226.0,-442.0,-114.0,-120.0
2593,99.0,-947.0,130.0,-92.0,-497.0,-210.0
2594,268.0,-1885.0,-1205.0,1658.0,555.0,-443.0
2595,-205.0,-1268.0,-651.0,1862.0,1527.0,-704.0
2596,244.0,-1307.0,-122.0,1444.0,756.0,-835.0
2597,404.0,-1091.0,207.0,1497.0,636.0,-709.0
2598,211.0,-899.0,170.0,1556.0,892.0,-621.0
2599,126.0,-881.0,13.0,1464.0,794.0,-579.0
2600,165.0,-973.0,-97.0,1370.0,620.0,-558.0
2601,131.0,-1031.0,-131.0,1382.0,523.0,-558.0
2602,94.0,-1013.0,-125.0,1479.0,433.0,-607.0
2603,66.0,-1018.0,-126.0,1556.0,311.0,-685.0
2604,12.0,-953.0,-106.0,1598.0,213.0,-770.0
2605,83.0,-855.0,-11.0,1560.0,86.0,-843.0
2606,313.0,-836.0,92.0,1414.0,-39.0,-819.0
2607,369.0,-827.0,168.0,1225.0,27.0,-673.0
2608,372.0,-822.0,188.0,1049.0,126.0,-502.0
2609,283.0,-898.0,179.0,768.0,231.0,-212.0
2610,223.0,-953.0,143.0,235.0,160.0,-136.0
2611,231.0,-966.0,122.0,202.0,149.0,-165.0
2612,218.0,-959.0,122.0,184.0,166.0,-189.0
2613,242.0,-937.0,149.0,174.0,156.0,-217.0
2614,233.0,-946.0,138.0,151.0,160.0,-227.0
2615,252.0,-926.0,149.0,136.0,148.0,-233.0
2616,262.0,-918.0,162.0,116.0,146.0,-228.0
2617,263.0,-918.0,157.0,94.0,154.0,-217.0
2618,235.0,-940.0,138.0,78.0,171.0,-209.0
2619,251.0,-954.0,124.0,78.0,172.0,-218.0
2620,307.0,-946.0,119.0,95.0,156.0,-204.0
2621,271.0,-908.0,179.0,10.0,147.0,-77.0
2622,252.0,-926.0,187.0,-15.0,157.0,-63.0
2623,247.0,-993.0,178.0,-36.0,153.0,-57.0
2624,284.0,-1030.0,114.0,-22.0,130.0,-57.0
2625,282.0,-949.0,165.0,51.0,85.0,-26.0
2626,278.0,-946.0,173.0,50.0,84.0,-11.0
2627,262.0,-949.0,171.0,43.0,87.0,2.0
2628,262.0,-955.0,158.0,38.0,84.0,5.0
2629,273.0,-940.0,164.0,40.0,80.0,4.0
2630,275.0,-938.0,166.0,42.0,81.0,7.0
2631,266.0,-943.0,174.0,39.0,85.0,7.0
2632,296.0,-915.0,190.0,267.0,61.0,40.0
2633,254.0,-950.0,264.0,492.0,91.0,-347.0
2634,252.0,-970.0,255.0,497.0,76.0,-370.0
2635,289.0,-990.0,249.0,517.0,50.0,-376.0
2636,333.0,-1002.0,246.0,551.0,43.0,-375.0
2637,346.0,-1033.0,248.0,582.0,58.0,-367.0
2638,357.0,-1073.0,259.0,616.0,72.0,-360.0
2639,376.0,-1098.0,261.0,662.0,90.0,-350.0
2640,410.0,-1113.0,264.0,712.0,116.0,-335.0
2641,414.0,-1133.0,275.0,761.0,165.0,-319.0
2642,424.0,-1134.0,292.0,811.0,214.0,-322.0
2643,394.0,-1136.0,303.0,850.0,277.0,-346.0
2644,396.0,-1388.0,361.0,2456.0,506.0,-1041.0
2645,191.0,-838.0,131.0,3123.0,379.0,-711.0
2646,88.0,-457.0,119.0,3236.0,304.0,-687.0
2647,-43.0,136.0,100.0,3064.0,192.0,-627.0
2648,-67.0,579.0,11.0,2280.0,-65.0,-485.0
2649,-48.0,404.0,-59.0,957.0,-310.0,-260.0
2650,229.0,22.0,-171.0,-133.0,-531.0,-23.0
2651,216.0,-25.0,-287.0,-693.0,-412.0,181.0
2652,5.0,-16.0,-223.0,-1103.0,-172.0,428.0
2653,36.0,-186.0,-187.0,-1477.0,-192.0,693.0
2654,156.0,-244.0,-187.0,-1661.0,-196.0,805.0
2655,180.0,-102.0,-227.0,-1790.0,-22.0,792.0
2656,127.0,-1197.0,12.0,-3527.0,-559.0,1541.0
2657,416.0,-1696.0,474.0,-3082.0,241.0,635.0
2658,454.0,-1820.0,519.0,-2932.0,340.0,605.0
2659,401.0,-1634.0,602.0,-2573.0,459.0,515.0
2660,361.0,-1556.0,650.0,-2377.0,517.0,409.0
2661,378.0,-1393.0,719.0,-2322.0,501.0,316.0
2662,404.0,-1348.0,740.0,-2361.0,469.0,252.0
2663,432.0,-1601.0,764.0,-2363.0,433.0,192.0
2664,395.0,-1387.0,828.0,-2084.0,408.0,36.0
2665,311.0,-1494.0,840.0,-1848.0,416.0,-112.0
2666,224.0,-1183.0,853.0,-1494.0,417.0,-215.0
2667,190.0,-1160.0,830.0,-1398.0,389.0,-237.0
2668,210.0,-1195.0,846.0,-1178.0,355.0,-171.0
2669,98.0,-1011.0,-96.0,674.0,346.0,-444.0
2670,103.0,-988.0,-105.0,646.0,264.0,-488.0
2671,137.0,-961.0,-69.0,650.0,194.0,-534.0
2672,214.0,-957.0,-24.0,645.0,157.0,-556.0
2673,258.0,-966.0,-40.0,632.0,162.0,-541.0
2674,221.0,-972.0,-81.0,635.0,199.0,-525.0
2675,238.0,-992.0,-116.0,655.0,197.0,-529.0
2676,212.0,-989.0,-112.0,702.0,208.0,-540.0
2677,337.0,-893.0,103.0,616.0,14.0,168.0
2678,273.0,-901.0,121.0,549.0,70.0,177.0
2679,253.0,-885.0,161.0,476.0,88.0,153.0
2680,201.0,-907.0,180.0,387.0,111.0,111.0
2681,207.0,-930.0,157.0,305.0,105.0,45.0
2682,210.0,-942.0,147.0,242.0,109.0,-20.0
2683,202.0,-944.0,148.0,190.0,113.0,-88.0
2684,220.0,-955.0,126.0,140.0,108.0,-164.0
2685,240.0,-948.0,126.0,111.0,105.0,-219.0
2686,234.0,-948.0,134.0,89.0,111.0,-255.0
2687,254.0,-946.0,134.0,68.0,99.0,-289.0
2688,290.0,-972.0,144.0,58.0,71.0,-259.0
2689,360.0,-898.0,128.0,131.0,79.0,90.0
2690,348.0,-905.0,133.0,135.0,91.0,128.0
2691,338.0,-912.0,140.0,134.0,101.0,156.0
2692,321.0,-917.0,142.0,131.0,110.0,173.0
2693,319.0,-917.0,142.0,128.0,113.0,178.0
2694,324.0,-921.0,140.0,124.0,117.0,180.0
2695,325.0,-926.0,139.0,120.0,122.0,187.0
2696,318.0,-928.0,142.0,120.0,129.0,193.0
2697,290.0,-933.0,161.0,117.0,140.0,193.0
2698,294.0,-939.0,152.0,108.0,135.0,181.0
2699,295.0,-940.0,147.0,107.0,133.0,170.0
2700,272.0,-952.0,171.0,64.0,129.0,31.0
2701,275.0,-959.0,164.0,64.0,122.0,20.0
2702,284.0,-955.0,166.0,72.0,115.0,10.0
2703,250.0,-953.0,180.0,79.0,120.0,0.0
2704,233.0,-955.0,187.0,73.0,111.0,-25.0
2705,241.0,-954.0,186.0,67.0,90.0,-58.0
2706,260.0,-951.0,184.0,63.0,72.0,-85.0
2707,238.0,-962.0,191.0,55.0,63.0,-104.0
2708,264.0,-963.0,177.0,51.0,38.0,-130.0
2709,295.0,-968.0,166.0,67.0,26.0,-147.0
2710,310.0,-917.0,211.0,284.0,101.0,-105.0
2711,296.0,-952.0,218.0,282.0,114.0,-127.0
2712,318.0,-965.0,212.0,294.0,109.0,-135.0
2713,319.0,-978.0,214.0,320.0,116.0,-138.0
2714,307.0,-990.0,223.0,356.0,119.0,-144.0
2715,300.0,-1000.0,226.0,399.0,107.0,-157.0
2716,308.0,-1015.0,229.0,439.0,93.0,-174.0
2717,309.0,-1026.0,233.0,483.0,82.0,-186.0
2718,320.0,-1034.0,228.0,530.0,69.0,-199.0
2719,352.0,-1044.0,227.0,572.0,63.0,-203.0
2720,97.0,-974.0,414.0,1118.0,244.0,-189.0
2721,486.0,-1009.0,564.0,2099.0,511.0,-686.0
2722,465.0,-961.0,530.0,2096.0,492.0,-671.0
2723,518.0,-944.0,475.0,2080.0,458.0,-668.0
2724,392.0,-823.0,463.0,2088.0,516.0,-646.0
2725,340.0,-669.0,440.0,2039.0,476.0,-571.0
2726,321.0,-549.0,382.0,1888.0,365.0,-461.0
2727,267.0,-437.0,307.0,1662.0,271.0,-351.0
2728,391.0,-392.0,169.0,1355.0,120.0,-244.0
2729,487.0,-362.0,1.0,1008.0,138.0,-183.0
2730,570.0,-336.0,-128.0,645.0,331.0,-134.0
2731,379.0,-341.0,-128.0,296.0,686.0,-85.0
2732,120.0,-183.0,-196.0,5.0,936.0,61.0
2733,-105.0,-184.0,-191.0,-418.0,962.0,314.0
2734,-16.0,-475.0,-259.0,-832.0,769.0,481.0
2735,-115.0,-393.0,-250.0,-920.0,741.0,536.0
2736,-129.0,-316.0,-282.0,-1259.0,492.0,728.0
2737,730.0,-1545.0,616.0,-2733.0,-836.0,746.0
2738,796.0,-1471.0,628.0,-2644.0,-673.0,679.0
2739,839.0,-1419.0,620.0,-2587.0,-473.0,610.0
2740,822.0,-1407.0,607.0,-2544.0,-238.0,522.0
2741,752.0,-1354.0,607.0,-2483.0,-4.0,431.0
2742,662.0,-1315.0,608.0,-2441.0,184.0,363.0
2743,590.0,-1336.0,599.0,-2408.0,306.0,307.0
2744,483.0,-1356.0,602.0,-2331.0,396.0,224.0
2745,349.0,-1360.0,622.0,-2214.0,441.0,134.0
2746,268.0,-1343.0,638.0,-2076.0,419.0,68.0
2747,212.0,-1332.0,667.0,-1937.0,368.0,18.0
2748,162.0,-1340.0,690.0,-1781.0,327.0,-27.0
2749,193.0,-1231.0,687.0,-1587.0,287.0,-35.0
2750,158.0,-1156.0,742.0,-1049.0,200.0,-136.0
2751,81.0,-1037.0,284.0,229.0,423.0,57.0
2752,95.0,-802.0,284.0,368.0,447.0,98.0
2753,92.0,-827.0,230.0,238.0,483.0,89.0
2754,105.0,-826.0,147.0,103.0,480.0,27.0
2755,75.0,-870.0,39.0,-15.0,459.0,-45.0
2756,46.0,-934.0,-108.0,-65.0,412.0,-134.0
2757,93.0,-1092.0,-316.0,-21.0,342.0,-227.0
2758,192.0,-1283.0,-549.0,220.0,331.0,-318.0
2759,322.0,-1519.0,-746.0,650.0,441.0,-395.0
2760,358.0,-1645.0,-776.0,1206.0,688.0,-415.0
2761,296.0,-1456.0,-563.0,1698.0,836.0,-374.0
2762,347.0,-939.0,70.0,819.0,-51.0,313.0
2763,375.0,-933.0,32.0,808.0,-59.0,450.0
2764,343.0,-914.0,68.0,766.0,-8.0,558.0
2765,215.0,-899.0,149.0,676.0,85.0,589.0
2766,89.0,-882.0,230.0,563.0,155.0,506.0
2767,78.0,-910.0,262.0,416.0,152.0,350.0
2768,81.0,-930.0,233.0,297.0,167.0,198.0
2769,79.0,-964.0,197.0,211.0,181.0,69.0
2770,117.0,-967.0,175.0,161.0,169.0,-39.0
2771,166.0,-966.0,161.0,131.0,150.0,-110.0
2772,165.0,-960.0,166.0,120.0,145.0,-137.0
2773,163.0,-977.0,149.0,119.0,108.0,-159.0
2774,208.0,-960.0,183.0,158.0,61.0,37.0
2775,209.0,-968.0,184.0,145.0,64.0,28.0
2776,202.0,-967.0,187.0,133.0,72.0,20.0
2777,202.0,-977.0,178.0,122.0,76.0,10.0
2778,218.0,-967.0,175.0,121.0,73.0,6.0
2779,209.0,-950.0,190.0,124.0,72.0,19.0
2780,207.0,-948.0,191.0,118.0,71.0,30.0
2781,213.0,-948.0,192.0,110.0,67.0,43.0
2782,219.0,-936.0,199.0,102.0,66.0,59.0
2783,208.0,-935.0,204.0,88.0,75.0,74.0
2784,194.0,-931.0,206.0,72.0,83.0,80.0
2785,187.0,-934.0,208.0,55.0,86.0,78.0
2786,195.0,-945.0,203.0,37.0,86.0,74.0
2787,207.0,-945.0,199.0,24.0,86.0,73.0
2788,168.0,-968.0,197.0,61.0,126.0,118.0
2789,155.0,-953.0,206.0,153.0,72.0,212.0
2790,115.0,-965.0,231.0,113.0,60.0,137.0
2791,114.0,-938.0,242.0,123.0,51.0,135.0
2792,121.0,-922.0,242.0,119.0,36.0,138.0
2793,105.0,-923.0,240.0,109.0,31.0,141.0
2794,126.0,-915.0,259.0,103.0,10.0,141.0
2795,123.0,-935.0,247.0,77.0,13.0,144.0
2796,128.0,-947.0,245.0,57.0,18.0,145.0
2797,101.0,-965.0,231.0,39.0,37.0,144.0
2798,91.0,-963.0,238.0,33.0,38.0,130.0
2799,97.0,-957.0,248.0,26.0,32.0,113.0
2800,136.0,-955.0,240.0,14.0,23.0,103.0
2801,143.0,-963.0,228.0,15.0,46.0,-15.0
2802,140.0,-956.0,235.0,25.0,56.0,18.0
2803,124.0,-960.0,238.0,28.0,69.0,44.0
2804,117.0,-956.0,232.0,31.0,77.0,58.0
2805,108.0,-945.0,241.0,41.0,79.0,68.0
2806,83.0,-954.0,250.0,42.0,81.0,70.0
2807,82.0,-964.0,244.0,35.0,74.0,56.0
2808,82.0,-964.0,243.0,32.0,67.0,39.0
2809,80.0,-960.0,246.0,30.0,62.0,24.0
2810,74.0,-956.0,245.0,26.0,57.0,9.0
2811,84.0,-954.0,255.0,24.0,43.0,-4.0
2812,93.0,-956.0,248.0,4.0,56.0,26.0
2813,92.0,-957.0,246.0,3.0,58.0,19.0
2814,101.0,-960.0,247.0,5.0,54.0,17.0
2815,99.0,-967.0,246.0,5.0,57.0,20.0
2816,92.0,-968.0,248.0,4.0,59.0,21.0
2817,91.0,-964.0,249.0,2.0,59.0,17.0
2818,86.0,-964.0,246.0,1.0,61.0,12.0
2819,89.0,-961.0,253.0,3.0,60.0,6.0
2820,91.0,-961.0,250.0,-1.0,61.0,1.0
2821,94.0,-963.0,246.0,-3.0,62.0,-1.0
2822,98.0,-962.0,247.0,-2.0,63.0,1.0
2823,90.0,-952.0,248.0,7.0,65.0,6.0
2824,86.0,-985.0,239.0,-32.0,50.0,16.0
2825,83.0,-989.0,238.0,-21.0,58.0,16.0
2826,72.0,-977.0,244.0,-11.0,64.0,14.0