sequence,AccelerometerX,AccelerometerY,AccelerometerZ,GyroscopeX,GyroscopeY,GyroscopeZ
61,-136.0,-1046.0,-213.0,-655.0,1683.0,-251.0
62,-117.0,-1086.0,-168.0,-648.0,1669.0,-283.0
63,-52.0,-870.0,383.0,-756.0,1463.0,-263.0
64,0.0,-952.0,365.0,-838.0,1417.0,-166.0
65,46.0,-980.0,372.0,-794.0,1400.0,-80.0
66,85.0,-987.0,381.0,-715.0,1387.0,-116.0
67,109.0,-993.0,403.0,-625.0,1388.0,-176.0
68,90.0,-955.0,430.0,-517.0,1421.0,-178.0
69,71.0,-934.0,453.0,-444.0,1444.0,-155.0
70,64.0,-951.0,460.0,-392.0,1454.0,-137.0
71,79.0,-620.0,527.0,746.0,1038.0,-168.0
72,45.0,-718.0,432.0,465.0,986.0,-225.0
73,47.0,-743.0,278.0,265.0,850.0,-264.0
74,142.0,-929.0,28.0,143.0,690.0,-304.0
75,305.0,-1215.0,-331.0,134.0,625.0,-284.0
76,357.0,-1506.0,-618.0,371.0,715.0,-200.0
77,226.0,-1745.0,-838.0,835.0,871.0,-116.0
78,113.0,-1784.0,-829.0,1489.0,873.0,-106.0
79,50.0,-1340.0,-446.0,2151.0,868.0,-212.0
80,-91.0,-797.0,69.0,2228.0,852.0,-332.0
81,-72.0,-965.0,397.0,1743.0,657.0,-387.0
82,75.0,-979.0,168.0,271.0,103.0,-219.0
83,148.0,-950.0,159.0,110.0,237.0,-352.0
84,154.0,-979.0,129.0,83.0,182.0,-281.0
85,208.0,-950.0,170.0,82.0,111.0,-212.0
86,184.0,-958.0,169.0,62.0,97.0,-129.0
87,160.0,-963.0,172.0,54.0,107.0,-85.0
88,170.0,-971.0,168.0,54.0,99.0,-63.0
89,177.0,-966.0,167.0,60.0,95.0,-34.0
90,162.0,-960.0,178.0,69.0,102.0,-8.0
91,163.0,-993.0,167.0,68.0,109.0,4.0
92,158.0,-994.0,153.0,83.0,117.0,3.0
93,146.0,-975.0,177.0,113.0,121.0,3.0
94,143.0,-978.0,177.0,116.0,120.0,5.0
95,164.0,-954.0,199.0,-40.0,108.0,14.0
96,155.0,-960.0,195.0,-43.0,118.0,40.0
97,140.0,-970.0,190.0,-47.0,126.0,60.0
98,136.0,-971.0,189.0,-44.0,128.0,72.0
99,133.0,-971.0,187.0,-41.0,133.0,81.0
100,134.0,-983.0,174.0,-39.0,137.0,94.0
101,139.0,-970.0,190.0,-26.0,136.0,106.0
102,139.0,-977.0,194.0,-24.0,145.0,117.0
103,132.0,-983.0,181.0,-25.0,160.0,121.0
104,102.0,-969.0,200.0,-12.0,169.0,119.0
105,106.0,-970.0,197.0,-12.0,166.0,103.0
106,114.0,-970.0,192.0,-10.0,171.0,92.0
107,120.0,-968.0,191.0,-3.0,169.0,94.0
108,119.0,-986.0,166.0,5.0,168.0,106.0
109,127.0,-975.0,184.0,31.0,161.0,124.0
110,68.0,-965.0,221.0,121.0,148.0,241.0
111,63.0,-972.0,217.0,111.0,152.0,239.0
112,63.0,-973.0,215.0,108.0,152.0,239.0
113,73.0,-979.0,214.0,106.0,148.0,246.0
114,74.0,-990.0,209.0,108.0,153.0,258.0
115,47.0,-987.0,218.0,124.0,165.0,265.0
116,28.0,-987.0,228.0,132.0,162.0,260.0
117,37.0,-1002.0,216.0,129.0,154.0,247.0
118,59.0,-1038.0,197.0,142.0,150.0,241.0
119,71.0,-1033.0,204.0,191.0,155.0,252.0
120,97.0,-1027.0,210.0,231.0,161.0,282.0
121,69.0,-1026.0,225.0,284.0,215.0,371.0
122,89.0,-934.0,318.0,666.0,691.0,20.0
123,120.0,-938.0,311.0,657.0,734.0,8.0
124,143.0,-960.0,310.0,638.0,789.0,-17.0
125,182.0,-993.0,304.0,630.0,850.0,-39.0
126,215.0,-992.0,295.0,639.0,933.0,-73.0
127,246.0,-994.0,290.0,638.0,1031.0,-118.0
128,275.0,-1003.0,286.0,631.0,1145.0,-160.0
129,268.0,-973.0,289.0,638.0,1286.0,-210.0
130,258.0,-1011.0,232.0,613.0,1448.0,-282.0
131,304.0,-892.0,240.0,619.0,1577.0,-300.0
132,47.0,-683.0,287.0,436.0,1948.0,-413.0
133,129.0,-977.0,189.0,-1060.0,-712.0,-980.0
134,-358.0,-895.0,52.0,-767.0,-756.0,-995.0
135,-650.0,-920.0,73.0,-790.0,-480.0,-892.0
136,-673.0,-1002.0,112.0,-829.0,-257.0,-592.0
137,-655.0,-1524.0,214.0,-782.0,127.0,-78.0
138,-877.0,-1501.0,641.0,-149.0,571.0,542.0
139,-922.0,-1330.0,1167.0,401.0,698.0,801.0
140,-1001.0,-1369.0,1600.0,484.0,783.0,773.0
141,-894.0,-991.0,1790.0,604.0,638.0,675.0
142,-844.0,-600.0,1396.0,446.0,389.0,488.0
143,-327.0,-673.0,460.0,-144.0,25.0,175.0
144,-191.0,-876.0,29.0,-406.0,-130.0,-23.0
145,-53.0,-970.0,229.0,-14.0,126.0,47.0
146,39.0,-963.0,217.0,31.0,108.0,-10.0
147,38.0,-966.0,218.0,18.0,99.0,-8.0
148,50.0,-974.0,204.0,10.0,92.0,-7.0
149,35.0,-974.0,208.0,14.0,96.0,-6.0
150,29.0,-982.0,209.0,17.0,97.0,-12.0
151,34.0,-979.0,199.0,21.0,96.0,-21.0
152,38.0,-976.0,205.0,24.0,94.0,-27.0
153,42.0,-968.0,214.0,24.0,97.0,-29.0
154,45.0,-978.0,206.0,19.0,104.0,-31.0
155,23.0,-969.0,213.0,25.0,117.0,-37.0
156,18.0,-966.0,211.0,24.0,119.0,-53.0
157,52.0,-966.0,215.0,50.0,76.0,-19.0
158,59.0,-1007.0,207.0,50.0,58.0,48.0
159,46.0,-1032.0,220.0,59.0,61.0,61.0
160,31.0,-1048.0,208.0,69.0,65.0,64.0
161,43.0,-1030.0,217.0,92.0,52.0,61.0
162,50.0,-1031.0,222.0,103.0,46.0,63.0
163,47.0,-1045.0,224.0,117.0,52.0,72.0
164,50.0,-1075.0,219.0,129.0,50.0,80.0
165,60.0,-1078.0,224.0,155.0,43.0,91.0
166,33.0,-1084.0,238.0,174.0,40.0,102.0
167,22.0,-1120.0,245.0,190.0,30.0,100.0
168,21.0,-1157.0,251.0,234.0,29.0,89.0
169,-84.0,-671.0,212.0,680.0,-457.0,211.0
170,418.0,-606.0,-461.0,463.0,-363.0,281.0
171,315.0,-257.0,-722.0,226.0,278.0,442.0
172,139.0,-366.0,-809.0,-312.0,915.0,572.0
173,-206.0,-466.0,-719.0,-669.0,1359.0,670.0
174,-332.0,-514.0,-658.0,-930.0,1434.0,736.0
175,-386.0,-549.0,-611.0,-1149.0,1303.0,744.0
176,-357.0,-601.0,-584.0,-1343.0,1042.0,741.0
177,273.0,-1221.0,185.0,-1155.0,277.0,-76.0
178,242.0,-1138.0,205.0,-1027.0,409.0,-138.0
179,183.0,-1109.0,223.0,-974.0,525.0,-184.0
180,134.0,-1116.0,238.0,-942.0,605.0,-223.0
181,57.0,-1096.0,246.0,-885.0,657.0,-274.0
182,-15.0,-1053.0,245.0,-823.0,675.0,-299.0
183,-124.0,-981.0,240.0,-786.0,673.0,-274.0
184,-192.0,-963.0,198.0,-791.0,626.0,-222.0
185,-189.0,-932.0,174.0,-791.0,533.0,-211.0
186,-221.0,-1017.0,188.0,-835.0,445.0,-237.0
187,-291.0,-1169.0,226.0,-729.0,327.0,-187.0
188,-164.0,-907.0,-63.0,154.0,-91.0,356.0
189,-239.0,-1334.0,-510.0,-119.0,12.0,251.0
190,-220.0,-1666.0,-900.0,6.0,8.0,22.0
191,-201.0,-1719.0,-933.0,585.0,-68.0,-144.0
192,-230.0,-1478.0,-611.0,1228.0,-142.0,-301.0
193,-169.0,-1053.0,-148.0,1564.0,-231.0,-430.0
194,-57.0,-970.0,117.0,1403.0,-251.0,-446.0
195,37.0,-869.0,231.0,1228.0,-204.0,-379.0
196,71.0,-840.0,226.0,1057.0,-129.0,-313.0
197,50.0,-913.0,132.0,856.0,-48.0,-262.0
198,-12.0,-973.0,29.0,734.0,-7.0,-207.0
199,-64.0,-984.0,109.0,268.0,41.0,-119.0
200,-41.0,-980.0,117.0,273.0,21.0,-135.0
201,-31.0,-979.0,111.0,276.0,22.0,-146.0
202,-51.0,-997.0,101.0,282.0,43.0,-157.0
203,-54.0,-1009.0,113.0,300.0,53.0,-181.0
204,-33.0,-1030.0,127.0,332.0,59.0,-222.0
205,-103.0,-1015.0,74.0,389.0,107.0,-271.0
206,-60.0,-987.0,76.0,448.0,98.0,-313.0
207,-33.0,-987.0,113.0,460.0,86.0,-324.0
208,-29.0,-959.0,231.0,246.0,123.0,-320.0
209,8.0,-979.0,186.0,-9.0,69.0,-108.0
210,35.0,-970.0,213.0,10.0,58.0,-123.0
211,42.0,-966.0,216.0,4.0,64.0,-128.0
212,26.0,-983.0,194.0,-14.0,75.0,-129.0
213,26.0,-988.0,187.0,-22.0,77.0,-139.0
214,47.0,-985.0,193.0,-26.0,73.0,-149.0
215,47.0,-989.0,194.0,-28.0,82.0,-152.0
216,40.0,-1000.0,175.0,-27.0,95.0,-158.0
217,49.0,-987.0,194.0,-12.0,100.0,-166.0
218,55.0,-976.0,203.0,-1.0,106.0,-169.0
219,47.0,-982.0,181.0,-2.0,120.0,-163.0
220,63.0,-993.0,190.0,-23.0,146.0,-98.0
221,38.0,-971.0,237.0,183.0,160.0,27.0
222,41.0,-981.0,233.0,177.0,168.0,7.0
223,41.0,-982.0,223.0,176.0,172.0,-10.0
224,63.0,-984.0,208.0,181.0,161.0,-13.0
225,51.0,-966.0,236.0,198.0,157.0,-3.0
226,52.0,-955.0,243.0,197.0,152.0,4.0
227,66.0,-945.0,246.0,187.0,153.0,10.0
228,67.0,-939.0,255.0,181.0,163.0,20.0
229,59.0,-961.0,253.0,170.0,183.0,27.0
230,67.0,-967.0,254.0,171.0,202.0,24.0
231,48.0,-977.0,250.0,172.0,224.0,25.0
232,25.0,-1113.0,301.0,545.0,110.0,151.0
233,0.0,-1304.0,348.0,1235.0,50.0,-140.0
234,21.0,-1310.0,351.0,1317.0,29.0,-164.0
235,24.0,-1268.0,351.0,1418.0,29.0,-192.0
236,21.0,-1265.0,344.0,1498.0,43.0,-213.0
237,5.0,-1249.0,337.0,1589.0,62.0,-233.0
238,28.0,-1246.0,340.0,1678.0,69.0,-259.0
239,78.0,-1282.0,340.0,1761.0,88.0,-291.0
240,124.0,-1301.0,333.0,1869.0,130.0,-327.0
241,174.0,-1343.0,325.0,1971.0,181.0,-377.0
242,229.0,-1413.0,357.0,2080.0,243.0,-445.0
243,324.0,-1511.0,381.0,2214.0,321.0,-523.0
244,-214.0,550.0,-388.0,943.0,98.0,-18.0
245,131.0,-483.0,-286.0,-3015.0,107.0,676.0
246,133.0,-635.0,-214.0,-3246.0,176.0,709.0
247,124.0,-765.0,-141.0,-3393.0,234.0,728.0
248,62.0,-854.0,-61.0,-3478.0,264.0,703.0
249,-8.0,-929.0,10.0,-3542.0,225.0,644.0
250,-8.0,-1011.0,66.0,-3590.0,101.0,589.0
251,50.0,-1118.0,107.0,-3628.0,-47.0,537.0
252,99.0,-1206.0,184.0,-3639.0,-169.0,479.0
253,102.0,-1292.0,280.0,-3644.0,-271.0,430.0
254,176.0,-1442.0,645.0,-2188.0,-476.0,52.0
255,293.0,-1425.0,647.0,-2024.0,-351.0,6.0
256,318.0,-1348.0,676.0,-1845.0,-175.0,-51.0
257,200.0,-1249.0,751.0,-1705.0,-1.0,-129.0
258,17.0,-1173.0,827.0,-1602.0,107.0,-180.0
259,-152.0,-1204.0,885.0,-1522.0,133.0,-161.0
260,-239.0,-1212.0,929.0,-1380.0,88.0,-114.0
261,-158.0,-1212.0,950.0,-1181.0,1.0,-81.0
262,-17.0,-1228.0,952.0,-956.0,-25.0,-93.0
263,68.0,-1186.0,925.0,-707.0,45.0,-131.0
264,20.0,-1150.0,865.0,-489.0,184.0,-171.0
265,55.0,-1050.0,-5.0,1190.0,-22.0,-207.0
266,-1.0,-910.0,241.0,680.0,-30.0,-154.0
267,30.0,-939.0,214.0,451.0,-8.0,-187.0
268,38.0,-955.0,182.0,367.0,12.0,-193.0
269,33.0,-947.0,197.0,322.0,39.0,-203.0
270,44.0,-911.0,245.0,273.0,64.0,-213.0
271,40.0,-945.0,215.0,177.0,91.0,-210.0
272,24.0,-1011.0,148.0,116.0,111.0,-206.0
273,23.0,-1061.0,117.0,134.0,118.0,-223.0
274,16.0,-1023.0,119.0,207.0,127.0,-252.0
275,31.0,-966.0,176.0,282.0,123.0,-270.0
276,34.0,-970.0,177.0,308.0,156.0,-288.0
277,61.0,-972.0,235.0,1.0,102.0,0.0
278,65.0,-964.0,234.0,-2.0,93.0,3.0
279,65.0,-967.0,235.0,-7.0,94.0,-1.0
280,56.0,-982.0,213.0,-10.0,97.0,-5.0
281,79.0,-979.0,217.0,-2.0,85.0,-7.0
282,95.0,-980.0,220.0,8.0,80.0,3.0
283,73.0,-983.0,222.0,19.0,90.0,18.0
284,66.0,-978.0,227.0,33.0,90.0,17.0
285,64.0,-976.0,221.0,41.0,93.0,9.0
286,70.0,-974.0,220.0,49.0,97.0,1.0
287,75.0,-977.0,244.0,174.0,132.0,44.0
288,79.0,-973.0,245.0,177.0,135.0,56.0
289,69.0,-970.0,252.0,178.0,145.0,71.0
290,77.0,-969.0,255.0,178.0,151.0,81.0
291,79.0,-979.0,258.0,179.0,161.0,95.0
292,64.0,-1000.0,254.0,183.0,180.0,107.0
293,60.0,-1020.0,251.0,186.0,178.0,113.0
294,38.0,-1038.0,255.0,207.0,188.0,115.0
295,17.0,-1072.0,263.0,226.0,185.0,109.0
296,42.0,-1099.0,257.0,254.0,167.0,92.0
297,71.0,-1095.0,264.0,302.0,161.0,89.0
298,27.0,-1130.0,271.0,352.0,167.0,97.0
299,21.0,-1099.0,294.0,447.0,125.0,88.0
300,35.0,-1153.0,295.0,540.0,91.0,72.0
301,40.0,-1143.0,308.0,669.0,38.0,66.0
302,-2.0,-1046.0,313.0,821.0,67.0,94.0
303,50.0,-1179.0,434.0,1205.0,451.0,-321.0
304,56.0,-1211.0,439.0,1274.0,470.0,-354.0
305,70.0,-1233.0,459.0,1352.0,490.0,-389.0
306,85.0,-1286.0,478.0,1427.0,513.0,-428.0
307,106.0,-1314.0,479.0,1528.0,544.0,-457.0
308,130.0,-1326.0,467.0,1635.0,577.0,-476.0
309,132.0,-1303.0,447.0,1740.0,622.0,-494.0
310,127.0,-1333.0,408.0,1815.0,678.0,-508.0
311,143.0,-1251.0,347.0,1919.0,740.0,-512.0
312,87.0,-1151.0,352.0,2002.0,814.0,-497.0
313,35.0,-1060.0,366.0,2036.0,811.0,-502.0
314,13.0,-902.0,403.0,2020.0,715.0,-530.0
315,-266.0,-336.0,-308.0,-1225.0,865.0,138.0
316,-128.0,-1108.0,89.0,-3052.0,-34.0,127.0
317,-171.0,-1211.0,170.0,-3086.0,-95.0,115.0
318,-188.0,-1302.0,243.0,-3085.0,-206.0,97.0
319,-173.0,-1338.0,302.0,-3046.0,-347.0,73.0
320,-104.0,-1387.0,339.0,-3005.0,-505.0,40.0
321,-21.0,-1401.0,359.0,-2951.0,-643.0,8.0
322,63.0,-1432.0,371.0,-2899.0,-742.0,-26.0
323,137.0,-1441.0,377.0,-2838.0,-792.0,-66.0
324,200.0,-1445.0,387.0,-2775.0,-798.0,-109.0
325,233.0,-1452.0,394.0,-2716.0,-765.0,-152.0
326,-139.0,-1152.0,1216.0,-1038.0,-444.0,-105.0
327,34.0,-1031.0,75.0,851.0,-106.0,-285.0
328,4.0,-1130.0,-90.0,843.0,-126.0,-272.0
329,15.0,-1205.0,-197.0,979.0,-177.0,-282.0
330,-21.0,-1218.0,-235.0,1228.0,-198.0,-297.0
331,-24.0,-1119.0,-218.0,1513.0,-216.0,-326.0
332,32.0,-987.0,-65.0,1693.0,-209.0,-312.0
333,120.0,-855.0,112.0,1690.0,-151.0,-256.0
334,5.0,-667.0,403.0,1530.0,-4.0,-168.0
335,30.0,-635.0,579.0,1131.0,5.0,-112.0
336,136.0,-826.0,451.0,667.0,-58.0,-69.0
337,74.0,-926.0,277.0,427.0,-32.0,-2.0
338,22.0,-979.0,201.0,7.0,48.0,-40.0
339,24.0,-985.0,199.0,-9.0,46.0,-47.0
340,23.0,-980.0,207.0,-11.0,49.0,-57.0
341,25.0,-980.0,198.0,-13.0,57.0,-75.0
342,32.0,-966.0,211.0,-12.0,65.0,-88.0
343,43.0,-977.0,200.0,-27.0,69.0,-87.0
344,32.0,-973.0,197.0,-30.0,69.0,-73.0
345,32.0,-978.0,195.0,-34.0,61.0,-59.0
346,33.0,-979.0,195.0,-38.0,56.0,-49.0
347,33.0,-982.0,196.0,-31.0,60.0,-49.0
348,28.0,-981.0,200.0,-18.0,73.0,-65.0
349,28.0,-998.0,185.0,12.0,96.0,-110.0
350,49.0,-969.0,209.0,7.0,71.0,-81.0
351,53.0,-973.0,203.0,2.0,70.0,-71.0
352,45.0,-967.0,216.0,1.0,70.0,-62.0
353,56.0,-970.0,212.0,-5.0,69.0,-59.0
354,55.0,-973.0,213.0,-7.0,75.0,-54.0
355,51.0,-971.0,210.0,-6.0,85.0,-53.0
356,53.0,-974.0,207.0,-4.0,90.0,-51.0
357,57.0,-971.0,209.0,1.0,91.0,-47.0
358,48.0,-970.0,212.0,4.0,97.0,-43.0
359,39.0,-979.0,201.0,2.0,99.0,-42.0
360,42.0,-977.0,206.0,5.0,95.0,-45.0
361,49.0,-976.0,206.0,8.0,91.0,-46.0
362,46.0,-979.0,208.0,11.0,91.0,-44.0
363,50.0,-973.0,211.0,17.0,89.0,-45.0
364,54.0,-979.0,212.0,31.0,106.0,-47.0
365,50.0,-962.0,227.0,56.0,86.0,10.0
366,46.0,-965.0,227.0,46.0,94.0,10.0
367,52.0,-967.0,224.0,38.0,103.0,4.0
368,46.0,-967.0,224.0,34.0,115.0,0.0
369,52.0,-970.0,220.0,28.0,119.0,-1.0
370,44.0,-967.0,223.0,25.0,126.0,1.0
371,52.0,-976.0,215.0,16.0,126.0,2.0
372,52.0,-976.0,217.0,15.0,128.0,10.0
373,31.0,-970.0,221.0,18.0,132.0,17.0
374,13.0,-964.0,234.0,23.0,127.0,11.0
375,20.0,-981.0,216.0,18.0,118.0,-9.0
376,54.0,-1014.0,223.0,35.0,104.0,69.0
377,7.0,-955.0,257.0,49.0,177.0,188.0
378,-48.0,-1043.0,249.0,124.0,208.0,226.0
379,-51.0,-1045.0,252.0,151.0,189.0,206.0
380,-67.0,-1067.0,261.0,179.0,175.0,184.0
381,-35.0,-1046.0,235.0,244.0,154.0,142.0
382,-21.0,-1104.0,260.0,291.0,146.0,126.0
383,-155.0,-1013.0,302.0,351.0,165.0,106.0
384,-13.0,-1073.0,238.0,366.0,89.0,87.0
385,-63.0,-1068.0,253.0,442.0,81.0,91.0
386,-36.0,-1104.0,267.0,508.0,34.0,96.0
387,-24.0,-1119.0,266.0,617.0,20.0,92.0
388,10.0,-1039.0,291.0,749.0,15.0,95.0
389,-46.0,-1127.0,394.0,989.0,-196.0,4.0
390,-37.0,-1139.0,397.0,1041.0,-183.0,-19.0
391,-6.0,-1177.0,393.0,1083.0,-173.0,-26.0
392,16.0,-1195.0,386.0,1145.0,-161.0,-41.0
393,38.0,-1216.0,377.0,1209.0,-141.0,-76.0
394,39.0,-1232.0,381.0,1272.0,-108.0,-108.0
395,69.0,-1259.0,387.0,1336.0,-87.0,-127.0
396,103.0,-1270.0,385.0,1410.0,-52.0,-152.0
397,120.0,-1280.0,381.0,1485.0,4.0,-184.0
398,129.0,-1284.0,387.0,1559.0,66.0,-205.0
399,126.0,-1258.0,368.0,1639.0,144.0,-212.0
400,-157.0,-504.0,-409.0,-1328.0,873.0,-171.0
401,-135.0,-460.0,-345.0,-1374.0,793.0,-183.0
402,-101.0,-436.0,-323.0,-1490.0,722.0,-229.0
403,-81.0,-365.0,-315.0,-1635.0,661.0,-282.0
404,-98.0,-408.0,-334.0,-1885.0,614.0,-298.0
405,-117.0,-478.0,-343.0,-2136.0,539.0,-268.0
406,-77.0,-575.0,-346.0,-2350.0,448.0,-209.0
407,32.0,-672.0,-315.0,-2503.0,398.0,-173.0
408,-549.0,-1273.0,127.0,-3076.0,377.0,-441.0
409,-527.0,-1341.0,162.0,-3078.0,78.0,-390.0
410,-439.0,-1389.0,187.0,-3060.0,-216.0,-323.0
411,-367.0,-1442.0,222.0,-3037.0,-459.0,-283.0
412,-104.0,-1544.0,307.0,-2880.0,-927.0,-178.0
413,-109.0,-1577.0,349.0,-2875.0,-990.0,-166.0
414,-103.0,-1647.0,397.0,-2877.0,-1079.0,-128.0
415,-157.0,-1694.0,469.0,-2824.0,-1184.0,-68.0
416,-210.0,-1712.0,559.0,-2721.0,-1348.0,-23.0
417,-189.0,-1699.0,642.0,-2566.0,-1572.0,6.0
418,-152.0,-1661.0,708.0,-2360.0,-1766.0,32.0
419,34.0,-1623.0,738.0,-2130.0,-1931.0,84.0
420,252.0,-1465.0,779.0,-1861.0,-1972.0,122.0
421,-308.0,-871.0,106.0,454.0,-465.0,-11.0
422,-166.0,-1337.0,-598.0,-84.0,-299.0,236.0
423,-25.0,-1032.0,-91.0,1182.0,209.0,-371.0
424,90.0,-1061.0,30.0,1190.0,158.0,-298.0
425,-6.0,-921.0,186.0,1248.0,183.0,-228.0
426,43.0,-864.0,204.0,1181.0,126.0,-220.0
427,117.0,-817.0,294.0,1041.0,104.0,-186.0
428,53.0,-799.0,406.0,838.0,192.0,-133.0
429,56.0,-848.0,354.0,584.0,194.0,-117.0
430,60.0,-946.0,248.0,370.0,215.0,-83.0
431,29.0,-1030.0,162.0,255.0,215.0,-46.0
432,0.0,-1019.0,149.0,264.0,185.0,-19.0
433,-59.0,-965.0,208.0,307.0,167.0,-20.0
434,6.0,-966.0,216.0,77.0,88.0,-79.0
435,14.0,-979.0,215.0,62.0,81.0,-90.0
436,8.0,-983.0,206.0,53.0,82.0,-103.0
437,8.0,-985.0,210.0,53.0,80.0,-119.0
438,24.0,-985.0,201.0,52.0,77.0,-134.0
439,35.0,-976.0,211.0,54.0,72.0,-134.0
440,27.0,-974.0,213.0,49.0,80.0,-128.0
441,28.0,-969.0,222.0,46.0,83.0,-128.0
442,42.0,-976.0,217.0,37.0,82.0,-125.0
443,65.0,-980.0,210.0,36.0,82.0,-113.0
444,68.0,-979.0,214.0,41.0,93.0,-93.0
445,91.0,-976.0,229.0,45.0,66.0,-61.0
446,41.0,-934.0,248.0,45.0,-47.0,-101.0
447,39.0,-936.0,251.0,38.0,-47.0,-102.0
448,34.0,-944.0,248.0,28.0,-48.0,-105.0
449,42.0,-948.0,246.0,21.0,-55.0,-111.0
450,62.0,-962.0,240.0,15.0,-62.0,-113.0
451,47.0,-965.0,236.0,17.0,-55.0,-110.0
452,37.0,-959.0,241.0,22.0,-55.0,-114.0
453,56.0,-948.0,247.0,25.0,-69.0,-121.0
454,33.0,-945.0,252.0,24.0,-64.0,-122.0
455,33.0,-954.0,245.0,16.0,-74.0,-134.0
456,50.0,-962.0,241.0,10.0,-87.0,-146.0
457,85.0,-965.0,239.0,1.0,-94.0,-137.0
458,81.0,-967.0,228.0,-20.0,-16.0,-21.0
459,82.0,-967.0,230.0,-11.0,-22.0,-14.0
460,84.0,-955.0,241.0,-2.0,-30.0,-7.0
461,72.0,-959.0,243.0,-2.0,-28.0,-4.0
462,62.0,-967.0,238.0,-2.0,-28.0,-10.0
463,48.0,-977.0,231.0,4.0,-34.0,-18.0
464,57.0,-985.0,225.0,14.0,-53.0,-25.0
465,92.0,-969.0,232.0,27.0,-73.0,-26.0
466,89.0,-963.0,238.0,32.0,-69.0,-20.0
467,107.0,-961.0,238.0,33.0,-62.0,-20.0
468,101.0,-966.0,235.0,35.0,-43.0,-19.0
469,78.0,-971.0,228.0,40.0,-25.0,-18.0
470,74.0,-962.0,235.0,51.0,-32.0,-14.0
471,87.0,-963.0,235.0,55.0,-42.0,-10.0
472,69.0,-966.0,233.0,57.0,-38.0,-10.0
473,122.0,-935.0,255.0,49.0,-15.0,35.0
474,3.0,-1018.0,264.0,-16.0,2.0,-28.0
475,-142.0,-975.0,259.0,21.0,-542.0,266.0
476,-234.0,-1008.0,278.0,34.0,-568.0,375.0
477,-340.0,-1020.0,309.0,60.0,-636.0,512.0
478,-460.0,-987.0,324.0,94.0,-742.0,610.0
479,-496.0,-1077.0,276.0,87.0,-899.0,667.0
480,-417.0,-819.0,297.0,170.0,-1095.0,798.0
481,-454.0,-936.0,295.0,66.0,-1200.0,801.0
482,-349.0,-927.0,249.0,43.0,-1376.0,866.0
483,-326.0,-934.0,243.0,9.0,-1454.0,936.0
484,489.0,-1356.0,-704.0,785.0,-5823.0,1222.0
485,518.0,-1239.0,-777.0,907.0,-5599.0,1026.0
486,501.0,-1156.0,-790.0,955.0,-5304.0,862.0
487,462.0,-1126.0,-771.0,949.0,-4979.0,725.0
488,389.0,-1100.0,-734.0,943.0,-4655.0,615.0
489,323.0,-1065.0,-714.0,930.0,-4370.0,529.0
490,273.0,-996.0,-713.0,903.0,-4133.0,471.0
491,203.0,-920.0,-721.0,831.0,-3939.0,446.0
492,201.0,-870.0,-735.0,695.0,-3819.0,510.0
493,258.0,-791.0,-768.0,532.0,-3686.0,688.0
494,238.0,-770.0,-792.0,321.0,-3484.0,812.0
495,-265.0,-1143.0,-127.0,-1529.0,-3101.0,1284.0
496,-242.0,-1148.0,-31.0,-1548.0,-3343.0,1328.0
497,-174.0,-1172.0,52.0,-1562.0,-3668.0,1339.0
498,-21.0,-1212.0,149.0,-1545.0,-4016.0,1312.0
499,249.0,-1228.0,239.0,-1453.0,-4265.0,1292.0
500,275.0,-1234.0,411.0,-1321.0,-4266.0,1258.0
501,409.0,-1185.0,510.0,-1163.0,-4249.0,1246.0
502,498.0,-1154.0,577.0,-1012.0,-4181.0,1262.0
503,622.0,-1212.0,650.0,-897.0,-4122.0,1225.0
504,799.0,-1251.0,747.0,-736.0,-4116.0,1123.0
505,1122.0,-1225.0,811.0,-535.0,-4152.0,941.0
506,105.0,-1138.0,380.0,505.0,301.0,542.0
507,113.0,-978.0,215.0,57.0,-40.0,-138.0
508,117.0,-969.0,222.0,63.0,-56.0,-111.0
509,109.0,-972.0,217.0,54.0,-64.0,-94.0
510,99.0,-985.0,202.0,52.0,-72.0,-81.0
511,130.0,-964.0,222.0,67.0,-94.0,-61.0
512,161.0,-965.0,214.0,71.0,-106.0,-19.0
513,172.0,-954.0,218.0,79.0,-97.0,39.0
514,130.0,-950.0,229.0,78.0,-71.0,93.0
515,107.0,-962.0,222.0,60.0,-63.0,101.0
516,107.0,-955.0,230.0,48.0,-56.0,81.0
517,141.0,-948.0,223.0,-27.0,34.0,78.0
518,136.0,-954.0,220.0,-41.0,45.0,104.0
519,132.0,-958.0,221.0,-49.0,52.0,124.0
520,132.0,-956.0,225.0,-58.0,55.0,138.0
521,128.0,-956.0,225.0,-71.0,64.0,149.0
522,118.0,-961.0,219.0,-86.0,78.0,152.0
523,102.0,-968.0,213.0,-95.0,93.0,146.0
524,76.0,-962.0,222.0,-98.0,108.0,127.0
525,53.0,-958.0,220.0,-103.0,121.0,91.0
526,-1.0,-960.0,228.0,-104.0,131.0,42.0
527,43.0,-967.0,221.0,-105.0,110.0,-31.0
528,102.0,-971.0,202.0,-113.0,95.0,-85.0
529,133.0,-939.0,222.0,67.0,39.0,-38.0
530,152.0,-962.0,203.0,40.0,60.0,-100.0
531,160.0,-975.0,186.0,30.0,65.0,-48.0
532,142.0,-980.0,190.0,29.0,73.0,8.0
533,110.0,-972.0,207.0,31.0,79.0,40.0
534,69.0,-986.0,223.0,17.0,84.0,38.0
535,91.0,-985.0,200.0,-3.0,79.0,13.0
536,96.0,-981.0,201.0,-5.0,75.0,6.0
537,92.0,-990.0,188.0,-7.0,76.0,6.0
538,90.0,-979.0,196.0,6.0,71.0,4.0
539,95.0,-975.0,208.0,15.0,64.0,1.0
540,93.0,-994.0,182.0,16.0,65.0,-7.0
541,118.0,-970.0,219.0,107.0,64.0,67.0
542,228.0,-425.0,-1160.0,-1398.0,-312.0,636.0
543,211.0,-502.0,-1070.0,-1659.0,-156.0,592.0
544,197.0,-617.0,-973.0,-1895.0,-46.0,542.0
545,156.0,-747.0,-867.0,-2085.0,36.0,485.0
546,133.0,-841.0,-745.0,-2227.0,70.0,429.0
547,165.0,-957.0,-608.0,-2370.0,71.0,399.0
548,203.0,-1086.0,-449.0,-2493.0,94.0,370.0
549,222.0,-1200.0,-292.0,-2574.0,139.0,328.0
550,238.0,-1283.0,-140.0,-2615.0,184.0,275.0
551,255.0,-1395.0,-10.0,-2643.0,222.0,211.0
552,233.0,-1480.0,111.0,-2606.0,255.0,134.0
553,-84.0,-971.0,637.0,-951.0,-21.0,-77.0
554,-85.0,-770.0,404.0,2019.0,-815.0,-618.0
555,146.0,-884.0,570.0,1398.0,-747.0,-596.0
556,274.0,-882.0,414.0,1160.0,-565.0,-501.0
557,226.0,-904.0,151.0,965.0,-288.0,-378.0
558,25.0,-925.0,-31.0,849.0,-78.0,-267.0
559,57.0,-1007.0,-126.0,800.0,-52.0,-231.0
560,44.0,-1036.0,-137.0,848.0,-4.0,-212.0
561,-23.0,-1024.0,-143.0,940.0,51.0,-202.0
562,-81.0,-1039.0,-107.0,1029.0,50.0,-215.0
563,64.0,-943.0,193.0,527.0,-92.0,-305.0
564,95.0,-951.0,180.0,460.0,-47.0,-301.0
565,43.0,-975.0,167.0,400.0,17.0,-284.0
566,-24.0,-953.0,173.0,374.0,43.0,-286.0
567,20.0,-943.0,174.0,320.0,5.0,-287.0
568,83.0,-927.0,192.0,229.0,-55.0,-233.0
569,89.0,-978.0,142.0,124.0,-60.0,-162.0
570,46.0,-977.0,159.0,95.0,-53.0,-118.0
571,61.0,-970.0,169.0,87.0,-46.0,-122.0
572,65.0,-984.0,157.0,73.0,-18.0,-133.0
573,41.0,-993.0,154.0,75.0,19.0,-146.0
574,84.0,-974.0,163.0,55.0,108.0,-70.0
575,54.0,-983.0,171.0,46.0,113.0,-47.0
576,58.0,-1002.0,147.0,37.0,119.0,-52.0
577,57.0,-990.0,160.0,57.0,122.0,-60.0
578,59.0,-966.0,184.0,69.0,123.0,-66.0
579,67.0,-971.0,178.0,55.0,130.0,-68.0
580,93.0,-971.0,178.0,48.0,131.0,-57.0
581,76.0,-974.0,173.0,45.0,146.0,-34.0
582,54.0,-993.0,150.0,39.0,165.0,-27.0
583,43.0,-983.0,169.0,53.0,165.0,-31.0
584,64.0,-992.0,161.0,50.0,154.0,-37.0
585,66.0,-1007.0,170.0,39.0,187.0,-3.0
586,81.0,-984.0,183.0,64.0,191.0,-1.0
587,61.0,-996.0,200.0,76.0,210.0,6.0
588,80.0,-1001.0,184.0,83.0,231.0,0.0
589,76.0,-989.0,181.0,102.0,257.0,6.0
590,49.0,-984.0,188.0,117.0,275.0,17.0
591,45.0,-1001.0,182.0,128.0,279.0,13.0
592,61.0,-998.0,187.0,148.0,279.0,6.0
593,15.0,-1133.0,265.0,400.0,131.0,62.0
594,46.0,-1396.0,358.0,1256.0,46.0,-35.0
595,186.0,-1305.0,281.0,1786.0,35.0,-277.0
596,192.0,-1302.0,283.0,1915.0,118.0,-319.0
597,238.0,-1271.0,307.0,2035.0,184.0,-359.0
598,286.0,-1326.0,402.0,2118.0,273.0,-398.0
599,315.0,-1453.0,410.0,2245.0,398.0,-446.0
600,221.0,-1322.0,235.0,2481.0,618.0,-495.0
601,186.0,-1230.0,204.0,2571.0,675.0,-512.0
602,195.0,-1298.0,222.0,2549.0,712.0,-573.0
603,185.0,-1282.0,263.0,2639.0,763.0,-604.0
604,165.0,-1236.0,266.0,2725.0,813.0,-629.0
605,145.0,-1243.0,289.0,2733.0,843.0,-662.0
606,152.0,-1223.0,286.0,2751.0,846.0,-682.0
607,96.0,-1153.0,271.0,2792.0,913.0,-692.0
608,15.0,-1080.0,274.0,2811.0,964.0,-684.0
609,-28.0,-916.0,289.0,2836.0,938.0,-661.0
610,-118.0,-338.0,364.0,2650.0,800.0,-544.0
611,-164.0,-1070.0,124.0,-3600.0,-40.0,273.0
612,-24.0,-1479.0,414.0,-3533.0,-619.0,139.0
613,61.0,-1516.0,480.0,-3421.0,-790.0,88.0
614,191.0,-1554.0,503.0,-3302.0,-920.0,36.0
615,265.0,-1553.0,522.0,-3158.0,-967.0,-24.0
616,309.0,-1508.0,521.0,-3026.0,-964.0,-92.0
617,308.0,-1507.0,506.0,-2941.0,-937.0,-163.0
618,264.0,-1518.0,496.0,-2859.0,-898.0,-237.0
619,153.0,-1511.0,502.0,-2759.0,-848.0,-292.0
620,46.0,-1463.0,518.0,-2655.0,-825.0,-297.0
621,-26.0,-1436.0,533.0,-2593.0,-809.0,-258.0
622,-89.0,-1503.0,530.0,-2557.0,-776.0,-195.0
623,-70.0,-1077.0,983.0,-442.0,778.0,-312.0
624,-152.0,-1051.0,963.0,-228.0,782.0,-288.0
625,-229.0,-936.0,937.0,-24.0,721.0,-270.0
626,-315.0,-1016.0,860.0,72.0,607.0,-242.0
627,-388.0,-1103.0,800.0,233.0,426.0,-188.0
628,-606.0,-1113.0,731.0,554.0,188.0,61.0
629,-594.0,-406.0,649.0,810.0,-225.0,449.0
630,-404.0,-695.0,362.0,200.0,-515.0,387.0
631,-187.0,-1280.0,-529.0,2922.0,-312.0,-181.0
632,-296.0,-436.0,229.0,2875.0,-365.0,-348.0
633,140.0,-953.0,370.0,1845.0,-566.0,-402.0
634,332.0,-960.0,500.0,1538.0,-506.0,-296.0
635,338.0,-948.0,364.0,1361.0,-311.0,-170.0
636,207.0,-935.0,163.0,1198.0,-82.0,-51.0
637,31.0,-984.0,-15.0,1050.0,56.0,26.0
638,10.0,-1053.0,-103.0,970.0,59.0,29.0
639,-18.0,-998.0,-127.0,989.0,37.0,29.0
640,-44.0,-985.0,-75.0,976.0,25.0,24.0
641,-43.0,-964.0,79.0,926.0,-32.0,4.0
642,35.0,-955.0,151.0,453.0,49.0,-186.0
643,61.0,-973.0,190.0,237.0,92.0,-219.0
644,69.0,-960.0,210.0,227.0,128.0,-247.0
645,61.0,-954.0,202.0,203.0,179.0,-276.0
646,9.0,-958.0,181.0,169.0,220.0,-295.0
647,73.0,-959.0,192.0,122.0,182.0,-293.0
648,51.0,-964.0,191.0,78.0,163.0,-255.0
649,75.0,-981.0,168.0,49.0,133.0,-225.0
650,88.0,-970.0,186.0,44.0,98.0,-191.0
651,89.0,-969.0,192.0,33.0,89.0,-160.0
652,79.0,-977.0,188.0,18.0,88.0,-135.0
653,78.0,-988.0,176.0,16.0,92.0,-125.0
654,44.0,-984.0,179.0,27.0,99.0,-121.0
655,75.0,-996.0,158.0,27.0,79.0,-123.0
656,43.0,-993.0,171.0,40.0,67.0,-112.0
657,74.0,-990.0,169.0,48.0,51.0,-114.0
658,89.0,-973.0,190.0,20.0,52.0,-6.0
659,67.0,-967.0,202.0,32.0,95.0,47.0
660,71.0,-980.0,201.0,-23.0,205.0,3.0
661,51.0,-993.0,181.0,-22.0,232.0,-12.0
662,53.0,-1001.0,170.0,-8.0,233.0,-22.0
663,44.0,-983.0,180.0,17.0,205.0,-6.0
664,63.0,-998.0,169.0,22.0,165.0,11.0
665,60.0,-984.0,195.0,44.0,121.0,35.0
666,51.0,-988.0,200.0,55.0,116.0,47.0
667,36.0,-999.0,192.0,62.0,118.0,35.0
668,-18.0,-1257.0,300.0,562.0,308.0,309.0
669,-180.0,-1504.0,341.0,759.0,316.0,194.0
670,-299.0,-1284.0,298.0,1222.0,196.0,106.0
671,-154.0,-1145.0,252.0,1415.0,12.0,62.0
672,-72.0,-1248.0,288.0,1324.0,-42.0,5.0
673,-59.0,-1249.0,317.0,1332.0,-51.0,-10.0
674,-45.0,-1287.0,305.0,1410.0,-28.0,14.0
675,-90.0,-1000.0,360.0,1473.0,-36.0,-22.0
676,-27.0,-1235.0,312.0,1240.0,-139.0,-188.0
677,-14.0,-1124.0,327.0,1327.0,-167.0,-217.0
678,-43.0,-1094.0,337.0,1343.0,-175.0,-245.0
679,152.0,-1157.0,411.0,1913.0,516.0,-168.0
680,-42.0,-360.0,-437.0,-1877.0,274.0,351.0
681,-57.0,-443.0,-403.0,-2139.0,311.0,385.0
682,-26.0,-549.0,-367.0,-2369.0,325.0,414.0
683,35.0,-645.0,-306.0,-2534.0,347.0,393.0
684,85.0,-732.0,-222.0,-2666.0,397.0,330.0
685,68.0,-791.0,-135.0,-2769.0,465.0,268.0
686,-4.0,-838.0,-60.0,-2882.0,504.0,242.0
687,-46.0,-954.0,-26.0,-3019.0,460.0,252.0
688,-65.0,-1073.0,25.0,-3106.0,357.0,224.0
689,-105.0,-1175.0,117.0,-3145.0,235.0,121.0
690,-141.0,-1227.0,221.0,-3146.0,86.0,30.0
691,4.0,-1673.0,643.0,-2068.0,-503.0,65.0
692,30.0,-1150.0,1350.0,-820.0,-762.0,-106.0
693,-123.0,-573.0,332.0,2736.0,-371.0,-686.0
694,267.0,-613.0,512.0,2076.0,-370.0,-682.0
695,382.0,-717.0,410.0,1591.0,-122.0,-497.0
696,217.0,-956.0,219.0,1246.0,154.0,-278.0
697,-17.0,-1042.0,77.0,1136.0,247.0,-161.0
698,-29.0,-1042.0,48.0,1170.0,120.0,-150.0
699,31.0,-986.0,101.0,1245.0,0.0,-161.0
700,69.0,-942.0,144.0,1267.0,3.0,-156.0
701,46.0,-896.0,181.0,1225.0,82.0,-151.0
702,15.0,-885.0,196.0,1114.0,150.0,-137.0
703,70.0,-852.0,267.0,980.0,117.0,-127.0
704,16.0,-979.0,212.0,238.0,70.0,-129.0
705,18.0,-966.0,230.0,250.0,75.0,-152.0
706,7.0,-963.0,235.0,240.0,89.0,-170.0
707,37.0,-952.0,239.0,225.0,81.0,-180.0
708,29.0,-940.0,271.0,208.0,77.0,-174.0
709,22.0,-962.0,263.0,181.0,81.0,-182.0
710,20.0,-929.0,283.0,169.0,82.0,-199.0
711,19.0,-960.0,245.0,139.0,79.0,-214.0
712,82.0,-941.0,278.0,131.0,80.0,-57.0
713,67.0,-966.0,285.0,88.0,254.0,36.0
714,29.0,-938.0,299.0,93.0,275.0,44.0
715,-20.0,-929.0,306.0,88.0,274.0,34.0
716,-19.0,-933.0,305.0,74.0,242.0,12.0
717,14.0,-932.0,299.0,64.0,201.0,-4.0
718,40.0,-932.0,300.0,56.0,180.0,-4.0
719,31.0,-968.0,291.0,48.0,178.0,4.0
720,85.0,-977.0,283.0,61.0,164.0,11.0
721,63.0,-975.0,298.0,84.0,182.0,35.0
722,40.0,-998.0,295.0,97.0,208.0,40.0
723,35.0,-986.0,308.0,122.0,213.0,38.0
724,-12.0,-999.0,327.0,136.0,232.0,21.0
725,-34.0,-1006.0,317.0,141.0,236.0,-16.0
726,-12.0,-1026.0,296.0,150.0,201.0,-43.0
727,57.0,-1027.0,315.0,374.0,121.0,32.0
728,37.0,-1043.0,308.0,416.0,128.0,50.0
729,9.0,-1009.0,333.0,482.0,141.0,62.0
730,27.0,-1011.0,341.0,517.0,126.0,65.0
731,53.0,-1030.0,349.0,549.0,125.0,71.0
732,54.0,-1122.0,349.0,572.0,126.0,74.0
733,44.0,-1138.0,356.0,661.0,158.0,65.0
734,-34.0,-1183.0,358.0,744.0,200.0,46.0
735,29.0,-1227.0,366.0,830.0,160.0,48.0
736,233.0,-1111.0,386.0,1488.0,20.0,-265.0
737,-33.0,-244.0,308.0,761.0,493.0,-354.0
738,12.0,-216.0,206.0,486.0,469.0,-269.0
739,219.0,-115.0,-68.0,200.0,456.0,-261.0
740,195.0,29.0,-314.0,-220.0,717.0,-303.0
741,-104.0,-292.0,-262.0,-861.0,1039.0,-221.0
742,22.0,-496.0,-217.0,-1173.0,946.0,-138.0
743,-10.0,-382.0,-146.0,-1246.0,999.0,-137.0
744,1.0,-492.0,-152.0,-1463.0,1047.0,-48.0
745,-1.0,-453.0,-149.0,-1575.0,1087.0,37.0
746,19.0,-501.0,-158.0,-1744.0,1122.0,29.0
747,18.0,-512.0,-144.0,-1879.0,1171.0,4.0
748,-8.0,-549.0,-103.0,-2016.0,1233.0,26.0
749,6.0,-904.0,95.0,-2269.0,987.0,-201.0
750,49.0,-1020.0,160.0,-2309.0,880.0,-346.0
751,-8.0,-1105.0,232.0,-2324.0,873.0,-378.0
752,-71.0,-1187.0,307.0,-2296.0,856.0,-385.0
753,-133.0,-1210.0,370.0,-2216.0,820.0,-385.0
754,-194.0,-1208.0,414.0,-2136.0,765.0,-401.0
755,-251.0,-1228.0,449.0,-2086.0,683.0,-432.0
756,-275.0,-1237.0,484.0,-2040.0,577.0,-435.0
757,-263.0,-1253.0,523.0,-1996.0,478.0,-413.0
758,-209.0,-1115.0,592.0,-1164.0,696.0,-460.0
759,-313.0,-1119.0,617.0,-1142.0,640.0,-404.0
760,-368.0,-1174.0,633.0,-1092.0,554.0,-351.0
761,-410.0,-1289.0,653.0,-956.0,442.0,-314.0
762,-483.0,-1266.0,701.0,-647.0,293.0,-185.0
763,-465.0,-1220.0,729.0,-357.0,95.0,-87.0
764,-429.0,-1138.0,734.0,-117.0,-90.0,-87.0
765,-422.0,-1040.0,752.0,71.0,-250.0,-72.0
766,-441.0,-1017.0,771.0,150.0,-384.0,-17.0
767,63.0,-975.0,160.0,343.0,-7.0,-55.0
768,57.0,-948.0,191.0,285.0,14.0,-35.0
769,58.0,-958.0,186.0,212.0,32.0,-8.0
770,23.0,-977.0,141.0,160.0,65.0,14.0
771,-3.0,-993.0,107.0,151.0,90.0,13.0
772,-15.0,-988.0,107.0,178.0,97.0,-5.0
773,-19.0,-986.0,116.0,212.0,100.0,-34.0
774,-29.0,-1010.0,107.0,237.0,111.0,-72.0
775,-29.0,-1031.0,105.0,273.0,113.0,-111.0
776,-17.0,-1043.0,99.0,315.0,107.0,-146.0
777,12.0,-939.0,273.0,260.0,128.0,-14.0
778,11.0,-945.0,282.0,224.0,99.0,-8.0
779,3.0,-952.0,259.0,189.0,84.0,-12.0
780,-26.0,-947.0,261.0,173.0,79.0,-24.0
781,0.0,-975.0,258.0,158.0,52.0,-54.0
782,38.0,-979.0,229.0,157.0,44.0,-80.0
783,15.0,-960.0,245.0,167.0,60.0,-83.0
784,11.0,-945.0,262.0,162.0,61.0,-91.0
785,8.0,-935.0,273.0,142.0,61.0,-101.0
786,-15.0,-947.0,267.0,116.0,63.0,-113.0
787,-8.0,-947.0,262.0,104.0,53.0,-139.0
788,135.0,-975.0,256.0,111.0,-34.0,-265.0
789,112.0,-934.0,278.0,-40.0,58.0,-115.0
790,120.0,-938.0,274.0,-53.0,65.0,-98.0
791,110.0,-937.0,274.0,-64.0,76.0,-78.0
792,101.0,-936.0,278.0,-75.0,83.0,-62.0
793,108.0,-957.0,268.0,-87.0,86.0,-57.0
794,110.0,-950.0,271.0,-95.0,93.0,-49.0
795,120.0,-933.0,273.0,-107.0,97.0,-37.0
796,155.0,-933.0,264.0,-125.0,107.0,-18.0
797,115.0,-938.0,273.0,-142.0,140.0,20.0
798,82.0,-947.0,272.0,-154.0,157.0,32.0
799,97.0,-955.0,267.0,-161.0,153.0,21.0
800,112.0,-973.0,261.0,-164.0,157.0,22.0
801,120.0,-969.0,250.0,-160.0,166.0,33.0
802,119.0,-966.0,252.0,-153.0,178.0,52.0
803,110.0,-973.0,251.0,-147.0,189.0,72.0
804,74.0,-1061.0,231.0,-85.0,213.0,42.0
805,76.0,-989.0,244.0,-85.0,177.0,-23.0
806,515.0,-768.0,311.0,-1041.0,798.0,-279.0
807,373.0,-862.0,295.0,-1256.0,1128.0,-261.0
808,346.0,-891.0,289.0,-1364.0,1195.0,-186.0
809,515.0,-973.0,304.0,-1447.0,1231.0,-208.0
810,729.0,-1119.0,453.0,-1405.0,1458.0,-319.0
811,906.0,-1007.0,600.0,-1188.0,1886.0,-314.0
812,933.0,-956.0,589.0,-1015.0,2586.0,-110.0
813,429.0,-949.0,594.0,-941.0,3403.0,114.0
814,264.0,-1053.0,512.0,-882.0,3684.0,167.0
815,155.0,-978.0,484.0,-687.0,3752.0,190.0
816,453.0,-958.0,-432.0,144.0,4517.0,-605.0
817,470.0,-1006.0,-526.0,112.0,4681.0,-573.0
818,484.0,-945.0,-605.0,119.0,4865.0,-517.0
819,435.0,-892.0,-656.0,70.0,5038.0,-517.0
820,357.0,-949.0,-688.0,-61.0,5158.0,-592.0
821,257.0,-971.0,-681.0,-128.0,5222.0,-634.0
822,172.0,-988.0,-650.0,-158.0,5212.0,-639.0
823,122.0,-964.0,-601.0,-171.0,5136.0,-656.0
824,158.0,-915.0,-564.0,-201.0,5020.0,-644.0
825,213.0,-935.0,-547.0,-279.0,4955.0,-584.0
826,115.0,-953.0,-488.0,-351.0,4975.0,-589.0
827,-252.0,-1085.0,8.0,-11.0,1602.0,-753.0
828,103.0,-980.0,200.0,52.0,46.0,-301.0
829,129.0,-951.0,228.0,47.0,61.0,-325.0
830,135.0,-944.0,238.0,22.0,82.0,-336.0
831,137.0,-970.0,206.0,-18.0,101.0,-336.0
832,171.0,-980.0,187.0,-31.0,117.0,-325.0
833,158.0,-946.0,237.0,-24.0,141.0,-300.0
834,144.0,-954.0,232.0,-65.0,159.0,-287.0
835,133.0,-982.0,199.0,-111.0,177.0,-284.0
836,144.0,-990.0,185.0,-123.0,189.0,-283.0
837,142.0,-978.0,200.0,-119.0,198.0,-276.0
838,146.0,-983.0,184.0,-121.0,207.0,-266.0
839,176.0,-955.0,195.0,-194.0,396.0,-149.0
840,111.0,-989.0,161.0,-585.0,679.0,-328.0
841,199.0,-1006.0,115.0,29.0,206.0,-37.0
842,194.0,-1003.0,125.0,44.0,188.0,-13.0
843,224.0,-1001.0,101.0,52.0,160.0,9.0
844,195.0,-1047.0,65.0,60.0,173.0,29.0
845,206.0,-990.0,123.0,103.0,180.0,24.0
846,191.0,-957.0,181.0,99.0,170.0,39.0
847,162.0,-996.0,153.0,44.0,170.0,33.0
848,201.0,-1010.0,149.0,19.0,171.0,0.0
849,187.0,-1020.0,165.0,-8.0,175.0,-14.0
850,194.0,-1034.0,152.0,-49.0,162.0,-41.0
851,208.0,-1066.0,133.0,-78.0,144.0,-78.0
852,1162.0,-910.0,833.0,-96.0,2013.0,148.0
853,100.0,-866.0,-172.0,890.0,1614.0,-419.0
854,-99.0,-775.0,-268.0,830.0,1750.0,-296.0
855,-264.0,-755.0,-327.0,704.0,1786.0,-229.0
856,-504.0,-770.0,-374.0,590.0,1772.0,-147.0
857,-441.0,-671.0,-419.0,511.0,1568.0,24.0
858,-347.0,-681.0,-488.0,346.0,1435.0,187.0
859,-276.0,-671.0,-526.0,212.0,1393.0,243.0
860,-198.0,-675.0,-573.0,78.0,1399.0,302.0
861,-222.0,-737.0,-582.0,-59.0,1468.0,359.0
862,-275.0,-838.0,-558.0,-151.0,1512.0,371.0
863,188.0,-1329.0,145.0,10.0,-292.0,-312.0
864,216.0,-1193.0,172.0,54.0,-170.0,-235.0
865,112.0,-1065.0,238.0,89.0,-68.0,-125.0
866,79.0,-958.0,299.0,108.0,-46.0,-66.0
867,48.0,-940.0,313.0,91.0,-16.0,-35.0
868,61.0,-952.0,284.0,71.0,1.0,-14.0
869,68.0,-962.0,253.0,72.0,10.0,28.0
870,59.0,-990.0,232.0,100.0,26.0,73.0
871,27.0,-977.0,246.0,153.0,50.0,100.0
872,-26.0,-954.0,298.0,181.0,52.0,112.0
873,5.0,-955.0,295.0,170.0,22.0,105.0
874,-24.0,-932.0,310.0,51.0,52.0,8.0
875,-20.0,-941.0,303.0,37.0,52.0,-16.0
876,-11.0,-937.0,298.0,31.0,51.0,-37.0
877,-23.0,-936.0,304.0,26.0,56.0,-57.0
878,-40.0,-931.0,304.0,17.0,59.0,-84.0
879,-25.0,-941.0,292.0,1.0,45.0,-112.0
880,7.0,-944.0,282.0,-1.0,36.0,-127.0
881,35.0,-940.0,296.0,2.0,36.0,-125.0
882,41.0,-937.0,299.0,-6.0,47.0,-110.0
883,-13.0,-922.0,299.0,-14.0,67.0,-94.0
884,-109.0,-919.0,323.0,-25.0,76.0,-116.0
885,66.0,-938.0,293.0,-68.0,-57.0,-138.0
886,62.0,-964.0,307.0,-73.0,-43.0,-122.0
887,76.0,-997.0,276.0,-77.0,-24.0,-124.0
888,46.0,-984.0,275.0,-62.0,0.0,-127.0
889,20.0,-975.0,283.0,-54.0,11.0,-132.0
890,-2.0,-974.0,276.0,-52.0,5.0,-142.0
891,-26.0,-980.0,290.0,-45.0,-8.0,-163.0
892,47.0,-984.0,280.0,-41.0,-44.0,-189.0
893,74.0,-1000.0,271.0,-36.0,-44.0,-187.0
894,115.0,-992.0,262.0,-26.0,-41.0,-163.0
895,45.0,-970.0,271.0,-38.0,164.0,-14.0
896,9.0,-963.0,288.0,-31.0,126.0,5.0
897,28.0,-969.0,270.0,-49.0,54.0,31.0
898,40.0,-982.0,257.0,-43.0,54.0,25.0
899,55.0,-974.0,259.0,-27.0,56.0,27.0
900,39.0,-969.0,269.0,-14.0,65.0,35.0
901,22.0,-978.0,271.0,-6.0,75.0,30.0
902,16.0,-972.0,269.0,0.0,77.0,15.0
903,30.0,-975.0,262.0,4.0,72.0,3.0
904,42.0,-973.0,263.0,9.0,72.0,3.0
905,38.0,-961.0,274.0,13.0,76.0,9.0
906,31.0,-962.0,265.0,13.0,80.0,15.0
907,32.0,-955.0,271.0,18.0,80.0,20.0
908,31.0,-945.0,281.0,23.0,79.0,24.0
909,38.0,-942.0,280.0,21.0,80.0,27.0
910,43.0,-948.0,278.0,19.0,82.0,38.0
911,38.0,-958.0,275.0,18.0,88.0,49.0
912,13.0,-1066.0,291.0,125.0,85.0,65.0
913,7.0,-1120.0,284.0,142.0,85.0,70.0
914,6.0,-1156.0,286.0,175.0,65.0,73.0
915,-15.0,-1191.0,304.0,239.0,65.0,77.0
916,-51.0,-1243.0,327.0,317.0,57.0,70.0
917,-31.0,-1332.0,321.0,412.0,15.0,65.0
918,-40.0,-1360.0,334.0,569.0,-8.0,82.0
919,-95.0,-1390.0,345.0,730.0,-16.0,112.0
920,-142.0,-1458.0,352.0,891.0,-55.0,163.0
921,-213.0,-1456.0,361.0,1066.0,-112.0,227.0
922,-96.0,-1504.0,252.0,1225.0,-310.0,38.0
923,68.0,-1081.0,-191.0,-2077.0,389.0,329.0
924,110.0,-1109.0,-80.0,-2093.0,346.0,266.0
925,150.0,-1106.0,36.0,-2145.0,306.0,210.0
926,205.0,-1214.0,126.0,-2258.0,270.0,161.0
927,223.0,-1333.0,217.0,-2299.0,250.0,107.0
928,185.0,-1402.0,313.0,-2227.0,231.0,22.0
929,121.0,-1406.0,389.0,-2092.0,190.0,-77.0
930,85.0,-1389.0,431.0,-1962.0,116.0,-148.0
931,79.0,-1390.0,448.0,-1848.0,39.0,-192.0
932,75.0,-1399.0,454.0,-1727.0,-23.0,-235.0
933,75.0,-1401.0,461.0,-1576.0,-66.0,-289.0
934,70.0,-1407.0,462.0,-1391.0,-79.0,-357.0
935,-23.0,-1100.0,435.0,-1058.0,235.0,-193.0
936,-87.0,-919.0,420.0,-80.0,-498.0,-34.0
937,-235.0,-1067.0,-60.0,-191.0,-124.0,104.0
938,-225.0,-1231.0,-285.0,-78.0,-144.0,-45.0
939,-209.0,-1385.0,-475.0,209.0,-203.0,-160.0
940,-113.0,-1574.0,-681.0,577.0,-244.0,-272.0
941,-42.0,-1621.0,-737.0,1104.0,-188.0,-362.0
942,-8.0,-1458.0,-554.0,1652.0,-108.0,-407.0
943,43.0,-1218.0,-229.0,1939.0,-67.0,-389.0
944,59.0,-1032.0,35.0,1907.0,59.0,-352.0
945,55.0,-907.0,175.0,1726.0,202.0,-338.0
946,-62.0,-789.0,251.0,1518.0,275.0,-303.0
947,-29.0,-932.0,90.0,1200.0,214.0,-283.0
948,8.0,-1035.0,82.0,1010.0,74.0,-202.0
949,26.0,-958.0,135.0,941.0,-69.0,-85.0
950,44.0,-952.0,125.0,826.0,-155.0,3.0
951,23.0,-998.0,102.0,700.0,-129.0,67.0
952,-33.0,-1028.0,116.0,274.0,23.0,-49.0
953,58.0,-963.0,229.0,301.0,216.0,-401.0
954,75.0,-943.0,242.0,264.0,195.0,-327.0
955,47.0,-924.0,231.0,236.0,183.0,-255.0
956,-3.0,-943.0,253.0,217.0,176.0,-212.0
957,-14.0,-960.0,256.0,191.0,154.0,-213.0
958,-26.0,-979.0,238.0,169.0,139.0,-232.0
959,1.0,-987.0,233.0,171.0,117.0,-260.0
960,27.0,-976.0,248.0,183.0,108.0,-277.0
961,16.0,-979.0,248.0,179.0,122.0,-285.0
962,2.0,-994.0,228.0,169.0,124.0,-294.0
963,63.0,-975.0,227.0,177.0,87.0,-287.0
964,18.0,-957.0,265.0,77.0,61.0,-107.0
965,9.0,-960.0,267.0,71.0,55.0,-115.0
966,24.0,-968.0,260.0,70.0,32.0,-126.0
967,74.0,-959.0,257.0,80.0,15.0,-129.0
968,74.0,-964.0,266.0,86.0,29.0,-116.0
969,48.0,-969.0,261.0,90.0,45.0,-107.0
970,44.0,-963.0,267.0,99.0,48.0,-113.0
971,58.0,-986.0,266.0,100.0,50.0,-123.0
972,56.0,-985.0,269.0,108.0,63.0,-131.0
973,49.0,-939.0,282.0,165.0,27.0,-190.0
974,34.0,-949.0,288.0,151.0,10.0,-190.0
975,61.0,-979.0,280.0,144.0,-11.0,-198.0
976,98.0,-993.0,275.0,154.0,-17.0,-195.0
977,95.0,-967.0,282.0,171.0,2.0,-179.0
978,85.0,-936.0,290.0,173.0,28.0,-167.0
979,99.0,-924.0,298.0,160.0,35.0,-160.0
980,95.0,-929.0,280.0,149.0,59.0,-149.0
981,80.0,-895.0,280.0,146.0,72.0,-132.0
982,30.0,-932.0,308.0,-4.0,172.0,21.0
983,41.0,-944.0,295.0,137.0,144.0,80.0
984,50.0,-928.0,296.0,139.0,122.0,92.0
985,42.0,-918.0,306.0,129.0,111.0,105.0
986,44.0,-927.0,310.0,112.0,101.0,117.0
987,40.0,-942.0,303.0,97.0,99.0,126.0
988,60.0,-1035.0,295.0,82.0,94.0,137.0
989,86.0,-1377.0,232.0,97.0,100.0,152.0
990,96.0,-1355.0,270.0,348.0,73.0,181.0
991,208.0,-1343.0,277.0,590.0,36.0,226.0
992,148.0,-1345.0,319.0,802.0,108.0,263.0
993,13.0,-1272.0,368.0,1006.0,125.0,253.0
994,298.0,-1047.0,407.0,1411.0,-168.0,-293.0
995,96.0,-1307.0,428.0,2152.0,865.0,-844.0
996,39.0,-1265.0,487.0,2278.0,875.0,-883.0
997,-8.0,-1275.0,573.0,2341.0,868.0,-880.0
998,-94.0,-1275.0,591.0,2426.0,848.0,-848.0
999,-108.0,-1221.0,556.0,2538.0,785.0,-799.0
1000,-161.0,-1134.0,540.0,2634.0,763.0,-719.0
1001,-224.0,-975.0,539.0,2731.0,701.0,-589.0
1002,-148.0,-766.0,438.0,2778.0,544.0,-471.0
1003,-193.0,-403.0,381.0,2714.0,477.0,-393.0
1004,-241.0,-189.0,362.0,2352.0,380.0,-273.0
1005,-238.0,-27.0,321.0,1874.0,199.0,-30.0
1006,-44.0,-465.0,-202.0,-3062.0,-19.0,617.0
1007,-105.0,-1573.0,752.0,-3312.0,-108.0,266.0
1008,101.0,-1625.0,767.0,-3158.0,-329.0,314.0
1009,209.0,-1557.0,791.0,-2968.0,-377.0,252.0
1010,225.0,-1495.0,790.0,-2835.0,-361.0,140.0
1011,146.0,-1459.0,779.0,-2733.0,-345.0,44.0
1012,53.0,-1452.0,774.0,-2638.0,-400.0,-47.0
1013,0.0,-1457.0,771.0,-2503.0,-530.0,-129.0
1014,-5.0,-1460.0,765.0,-2315.0,-688.0,-206.0
1015,1.0,-1400.0,749.0,-2089.0,-816.0,-272.0
1016,-282.0,-1051.0,717.0,-450.0,130.0,-280.0
1017,-339.0,-1072.0,779.0,-267.0,-6.0,-234.0
1018,-418.0,-1029.0,832.0,-9.0,-206.0,-108.0
1019,-398.0,-1160.0,845.0,244.0,-496.0,21.0
1020,-343.0,-1175.0,875.0,634.0,-793.0,150.0
1021,-206.0,-519.0,866.0,1059.0,-1003.0,272.0
1022,-127.0,-604.0,688.0,718.0,-904.0,200.0
1023,-63.0,-550.0,411.0,358.0,-712.0,144.0
1024,-84.0,-890.0,-22.0,16.0,-479.0,51.0
1025,-65.0,-1467.0,-560.0,-128.0,-346.0,-71.0
1026,6.0,-1821.0,-976.0,287.0,-275.0,-114.0
1027,4.0,-926.0,165.0,697.0,18.0,-266.0
1028,42.0,-997.0,127.0,271.0,42.0,-119.0
1029,18.0,-990.0,124.0,275.0,54.0,-123.0
1030,16.0,-978.0,149.0,288.0,55.0,-132.0
1031,29.0,-966.0,177.0,289.0,53.0,-139.0
1032,12.0,-972.0,170.0,266.0,66.0,-148.0
1033,11.0,-989.0,151.0,253.0,67.0,-164.0
1034,23.0,-985.0,157.0,269.0,59.0,-176.0
1035,36.0,-977.0,176.0,282.0,54.0,-184.0
1036,54.0,-978.0,178.0,275.0,58.0,-186.0
1037,70.0,-976.0,176.0,265.0,64.0,-172.0
1038,59.0,-980.0,176.0,254.0,79.0,-152.0
1039,41.0,-972.0,189.0,243.0,83.0,-140.0
1040,43.0,-972.0,196.0,232.0,75.0,-139.0
1041,35.0,-987.0,180.0,219.0,79.0,-146.0
1042,45.0,-997.0,154.0,216.0,88.0,-163.0
1043,98.0,-961.0,203.0,126.0,78.0,-158.0
1044,70.0,-971.0,234.0,62.0,103.0,-100.0
1045,78.0,-973.0,229.0,55.0,100.0,-102.0
1046,74.0,-961.0,228.0,55.0,98.0,-98.0
1047,91.0,-963.0,236.0,51.0,91.0,-90.0
1048,99.0,-983.0,218.0,43.0,87.0,-72.0
1049,99.0,-969.0,230.0,56.0,90.0,-55.0
1050,81.0,-960.0,238.0,61.0,93.0,-40.0
1051,69.0,-959.0,245.0,56.0,94.0,-36.0
1052,86.0,-982.0,239.0,122.0,116.0,-29.0
1053,68.0,-943.0,266.0,143.0,175.0,1.0
1054,70.0,-940.0,273.0,137.0,181.0,-6.0
1055,69.0,-945.0,268.0,128.0,190.0,-11.0
1056,60.0,-938.0,274.0,121.0,199.0,-18.0
1057,43.0,-930.0,286.0,110.0,205.0,-30.0
1058,41.0,-949.0,282.0,87.0,208.0,-55.0
1059,46.0,-975.0,275.0,72.0,210.0,-84.0
1060,54.0,-973.0,276.0,71.0,211.0,-107.0
1061,70.0,-979.0,272.0,68.0,212.0,-123.0
1062,79.0,-991.0,273.0,69.0,221.0,-131.0
1063,68.0,-1001.0,275.0,77.0,234.0,-135.0
1064,75.0,-989.0,281.0,91.0,238.0,-144.0
1065,79.0,-1002.0,273.0,96.0,248.0,-149.0
1066,82.0,-992.0,271.0,110.0,256.0,-150.0
1067,79.0,-988.0,274.0,124.0,252.0,-144.0
1068,22.0,-1014.0,331.0,351.0,99.0,-42.0
1069,26.0,-1056.0,394.0,795.0,122.0,-34.0
1070,-54.0,-1031.0,418.0,797.0,118.0,-67.0
1071,-87.0,-1005.0,426.0,806.0,81.0,-90.0
1072,-59.0,-986.0,422.0,816.0,22.0,-109.0
1073,0.0,-975.0,420.0,819.0,-26.0,-117.0
1074,57.0,-1025.0,411.0,824.0,-53.0,-121.0
1075,20.0,-1044.0,412.0,876.0,-48.0,-116.0
1076,44.0,-989.0,425.0,953.0,-84.0,-87.0
1077,107.0,-967.0,417.0,987.0,-111.0,-75.0
1078,161.0,-965.0,427.0,1003.0,-105.0,-82.0
1079,193.0,-977.0,428.0,1016.0,-73.0,-99.0
1080,215.0,-980.0,434.0,1037.0,-28.0,-117.0
1081,225.0,-997.0,441.0,1054.0,21.0,-145.0
1082,236.0,-1015.0,453.0,1080.0,70.0,-182.0
1083,273.0,-1058.0,490.0,1116.0,119.0,-223.0
1084,3.0,-982.0,575.0,1947.0,779.0,-494.0
1085,-168.0,-545.0,-220.0,-1067.0,569.0,213.0
1086,-191.0,-523.0,-229.0,-1159.0,488.0,302.0
1087,-189.0,-485.0,-233.0,-1260.0,388.0,340.0
1088,-185.0,-460.0,-232.0,-1408.0,286.0,320.0
1089,-177.0,-429.0,-234.0,-1566.0,176.0,311.0
1090,-108.0,-421.0,-241.0,-1765.0,57.0,320.0
1091,1.0,-503.0,-242.0,-2001.0,-19.0,334.0
1092,83.0,-584.0,-208.0,-2182.0,-24.0,323.0
1093,104.0,-633.0,-151.0,-2322.0,18.0,278.0
1094,70.0,-659.0,-101.0,-2460.0,69.0,244.0
1095,203.0,-1476.0,472.0,-2797.0,-697.0,-83.0
1096,104.0,-1460.0,566.0,-2675.0,-423.0,-53.0
1097,96.0,-1457.0,604.0,-2617.0,-293.0,22.0
1098,26.0,-1604.0,649.0,-2538.0,-149.0,97.0
1099,6.0,-1567.0,675.0,-2235.0,-66.0,171.0
1100,48.0,-1346.0,715.0,-1957.0,-35.0,241.0
1101,95.0,-1284.0,716.0,-1940.0,14.0,221.0
1102,187.0,-1273.0,697.0,-1921.0,50.0,176.0
1103,210.0,-1164.0,713.0,-1888.0,135.0,133.0
1104,-126.0,-1139.0,1177.0,-662.0,211.0,10.0
1105,-101.0,-1257.0,1282.0,-329.0,118.0,44.0
1106,-163.0,-1231.0,1421.0,159.0,11.0,55.0
1107,-212.0,-1111.0,1544.0,659.0,-139.0,56.0
1108,-128.0,-780.0,1514.0,1010.0,-295.0,1.0
1109,3.0,-576.0,1156.0,914.0,-361.0,-90.0
1110,8.0,-351.0,634.0,544.0,-346.0,-130.0
1111,-49.0,-934.0,-79.0,-103.0,-371.0,-165.0
1112,243.0,-1775.0,-1050.0,-432.0,-474.0,-233.0
1113,247.0,-1959.0,-1646.0,358.0,-204.0,-161.0
1114,154.0,-1954.0,-1590.0,1712.0,38.0,-2.0
1115,92.0,-979.0,159.0,1099.0,-30.0,-41.0
1116,65.0,-943.0,259.0,381.0,41.0,-68.0
1117,54.0,-961.0,240.0,332.0,55.0,-58.0
1118,37.0,-954.0,241.0,305.0,59.0,-46.0
1119,29.0,-946.0,253.0,286.0,52.0,-43.0
1120,46.0,-942.0,256.0,270.0,41.0,-48.0
1121,32.0,-954.0,241.0,252.0,53.0,-56.0
1122,10.0,-949.0,252.0,241.0,64.0,-74.0
1123,32.0,-944.0,263.0,226.0,59.0,-97.0
1124,32.0,-950.0,258.0,202.0,65.0,-111.0
1125,43.0,-956.0,248.0,181.0,75.0,-126.0
1126,33.0,-960.0,260.0,167.0,92.0,-142.0
1127,29.0,-966.0,252.0,155.0,111.0,-168.0
1128,26.0,-974.0,239.0,150.0,121.0,-193.0
1129,50.0,-983.0,238.0,151.0,121.0,-212.0
1130,55.0,-976.0,237.0,162.0,133.0,-223.0
1131,78.0,-946.0,287.0,78.0,142.0,-131.0
1132,66.0,-943.0,285.0,31.0,115.0,-52.0
1133,79.0,-960.0,285.0,23.0,118.0,-22.0
1134,43.0,-961.0,299.0,183.0,158.0,9.0
1135,109.0,-990.0,309.0,296.0,132.0,42.0
1136,105.0,-977.0,309.0,317.0,141.0,84.0
1137,65.0,-957.0,323.0,345.0,164.0,121.0
1138,20.0,-959.0,344.0,353.0,170.0,131.0
1139,3.0,-997.0,347.0,356.0,160.0,114.0
1140,-22.0,-1046.0,355.0,370.0,141.0,92.0
1141,-13.0,-1114.0,358.0,388.0,92.0,71.0
1142,110.0,-1162.0,323.0,433.0,24.0,72.0
1143,217.0,-1142.0,316.0,527.0,35.0,128.0
1144,153.0,-1098.0,356.0,608.0,124.0,208.0
1145,45.0,-1123.0,387.0,623.0,177.0,233.0
1146,179.0,-962.0,434.0,778.0,165.0,-23.0
1147,145.0,-958.0,441.0,789.0,223.0,-51.0
1148,111.0,-962.0,449.0,801.0,267.0,-69.0
1149,100.0,-983.0,456.0,813.0,290.0,-82.0
1150,111.0,-990.0,461.0,839.0,311.0,-96.0
1151,136.0,-1007.0,463.0,863.0,340.0,-110.0
1152,166.0,-1027.0,471.0,891.0,383.0,-134.0
1153,176.0,-1031.0,479.0,929.0,448.0,-161.0
1154,188.0,-1026.0,484.0,968.0,521.0,-181.0
1155,-76.0,-512.0,123.0,168.0,320.0,-119.0
1156,67.0,-1137.0,196.0,-1893.0,-793.0,515.0
1157,52.0,-1197.0,220.0,-1882.0,-780.0,494.0
1158,32.0,-1237.0,246.0,-1838.0,-798.0,468.0
1159,46.0,-1221.0,267.0,-1768.0,-849.0,438.0
1160,70.0,-1231.0,289.0,-1725.0,-909.0,406.0
1161,107.0,-1258.0,313.0,-1685.0,-958.0,373.0
1162,151.0,-1218.0,345.0,-1618.0,-977.0,337.0
1163,158.0,-1187.0,380.0,-1587.0,-955.0,303.0
1164,109.0,-1052.0,423.0,-491.0,-1162.0,264.0
1165,67.0,-1077.0,429.0,-393.0,-1158.0,269.0
1166,-37.0,-1073.0,446.0,-268.0,-1173.0,278.0
1167,-28.0,-1081.0,440.0,-129.0,-1265.0,312.0
1168,0.0,-1060.0,436.0,21.0,-1367.0,327.0
1169,8.0,-980.0,442.0,169.0,-1468.0,267.0
1170,37.0,-832.0,454.0,255.0,-1592.0,166.0
1171,119.0,-783.0,427.0,195.0,-1707.0,107.0
1172,147.0,-871.0,434.0,95.0,-1743.0,75.0
1173,118.0,-967.0,491.0,99.0,-1759.0,-2.0
1174,161.0,-965.0,527.0,218.0,-1838.0,-72.0
1175,125.0,-1172.0,78.0,564.0,-95.0,144.0
1176,-46.0,-917.0,236.0,216.0,99.0,-288.0
1177,-35.0,-905.0,257.0,198.0,102.0,-291.0
1178,33.0,-913.0,253.0,172.0,96.0,-280.0
1179,69.0,-898.0,245.0,158.0,126.0,-246.0
1180,43.0,-884.0,258.0,145.0,186.0,-212.0
1181,20.0,-905.0,265.0,116.0,237.0,-199.0
1182,-49.0,-951.0,234.0,89.0,286.0,-208.0
1183,-84.0,-970.0,229.0,85.0,290.0,-237.0
1184,-128.0,-988.0,255.0,82.0,260.0,-279.0
1185,-86.0,-1018.0,233.0,69.0,197.0,-330.0
1186,-35.0,-1010.0,240.0,63.0,145.0,-351.0
1187,31.0,-960.0,254.0,127.0,-117.0,-212.0
1188,18.0,-971.0,251.0,122.0,-106.0,-201.0
1189,8.0,-966.0,251.0,120.0,-103.0,-202.0
1190,8.0,-960.0,252.0,114.0,-107.0,-207.0
1191,40.0,-947.0,262.0,106.0,-126.0,-200.0
1192,53.0,-956.0,258.0,88.0,-123.0,-182.0
1193,51.0,-977.0,245.0,75.0,-114.0,-162.0
1194,36.0,-975.0,243.0,79.0,-111.0,-144.0
1195,59.0,-954.0,258.0,84.0,-125.0,-129.0
1196,51.0,-953.0,260.0,76.0,-117.0,-115.0
1197,41.0,-952.0,263.0,66.0,-108.0,-105.0
1198,52.0,-972.0,253.0,36.0,-84.0,22.0
1199,49.0,-970.0,246.0,47.0,-88.0,34.0
1200,-15.0,-961.0,256.0,59.0,-88.0,44.0
1201,-8.0,-967.0,255.0,72.0,-129.0,41.0
1202,31.0,-952.0,276.0,79.0,-184.0,47.0
1203,35.0,-952.0,269.0,69.0,-190.0,61.0
1204,49.0,-970.0,261.0,60.0,-195.0,73.0
1205,71.0,-957.0,259.0,58.0,-196.0,84.0
1206,72.0,-953.0,263.0,51.0,-181.0,93.0
1207,83.0,-925.0,275.0,39.0,-163.0,102.0
1208,40.0,-1030.0,249.0,-101.0,120.0,-54.0
1209,40.0,-1019.0,255.0,-96.0,114.0,-51.0
1210,26.0,-1023.0,257.0,-100.0,115.0,-51.0
1211,-6.0,-1028.0,263.0,-107.0,115.0,-63.0
1212,-33.0,-1034.0,269.0,-112.0,98.0,-95.0
1213,-50.0,-1040.0,267.0,-117.0,62.0,-132.0
1214,-120.0,-1051.0,273.0,-118.0,29.0,-158.0
1215,-206.0,-1030.0,288.0,-97.0,-42.0,-95.0
1216,-244.0,-1021.0,293.0,-83.0,-143.0,-47.0
1217,-487.0,-949.0,338.0,-80.0,-185.0,116.0
1218,-400.0,-992.0,333.0,-129.0,-426.0,198.0
1219,-69.0,-1223.0,-242.0,1021.0,-4263.0,911.0
1220,-15.0,-1173.0,-397.0,1085.0,-4458.0,854.0
1221,40.0,-1123.0,-533.0,1127.0,-4600.0,803.0
1222,72.0,-1054.0,-616.0,1148.0,-4671.0,747.0
1223,132.0,-1030.0,-665.0,1113.0,-4681.0,727.0
1224,159.0,-998.0,-677.0,1060.0,-4603.0,765.0
1225,77.0,-1010.0,-653.0,965.0,-4453.0,825.0
1226,-21.0,-1042.0,-636.0,864.0,-4323.0,894.0
1227,-50.0,-1038.0,-650.0,800.0,-4253.0,1004.0
1228,33.0,-1029.0,-277.0,-972.0,-3748.0,1373.0
1229,136.0,-1116.0,-69.0,-1052.0,-4206.0,1290.0
1230,293.0,-1140.0,41.0,-1026.0,-4398.0,1254.0
1231,448.0,-1155.0,176.0,-959.0,-4439.0,1199.0
1232,434.0,-1205.0,345.0,-898.0,-4280.0,1126.0
1233,496.0,-1174.0,475.0,-796.0,-4099.0,1169.0
1234,420.0,-1143.0,577.0,-711.0,-3865.0,1260.0
1235,384.0,-1128.0,648.0,-646.0,-3733.0,1296.0
1236,377.0,-1126.0,687.0,-568.0,-3700.0,1282.0
1237,1126.0,-765.0,134.0,506.0,-450.0,-624.0
1238,86.0,-971.0,291.0,28.0,42.0,-73.0
1239,180.0,-959.0,258.0,-70.0,21.0,-126.0
1240,117.0,-944.0,291.0,-61.0,32.0,-109.0
1241,143.0,-952.0,267.0,-73.0,13.0,-135.0
1242,180.0,-948.0,247.0,-69.0,1.0,-143.0
1243,184.0,-930.0,262.0,-55.0,9.0,-127.0
1244,184.0,-927.0,263.0,-53.0,17.0,-108.0
1245,189.0,-927.0,262.0,-53.0,18.0,-88.0
1246,205.0,-933.0,258.0,-53.0,21.0,-65.0
1247,199.0,-957.0,255.0,-53.0,38.0,-41.0
1248,205.0,-957.0,248.0,-44.0,53.0,-22.0
1249,196.0,-951.0,249.0,-33.0,71.0,0.0
1250,176.0,-906.0,264.0,72.0,84.0,189.0
1251,103.0,-981.0,261.0,17.0,73.0,94.0
1252,128.0,-959.0,264.0,28.0,61.0,85.0
1253,139.0,-942.0,273.0,37.0,56.0,98.0
1254,128.0,-948.0,275.0,40.0,59.0,120.0
1255,112.0,-949.0,281.0,40.0,68.0,128.0
1256,111.0,-955.0,277.0,36.0,74.0,119.0
1257,107.0,-957.0,270.0,36.0,79.0,112.0
1258,120.0,-956.0,263.0,38.0,73.0,115.0
1259,134.0,-944.0,271.0,48.0,63.0,135.0
1260,104.0,-923.0,292.0,51.0,76.0,148.0
1261,122.0,-945.0,276.0,39.0,67.0,156.0
1262,65.0,-974.0,280.0,23.0,95.0,207.0
1263,48.0,-942.0,290.0,-19.0,128.0,29.0
1264,55.0,-952.0,287.0,-22.0,135.0,25.0
1265,47.0,-960.0,288.0,-21.0,149.0,21.0
1266,41.0,-959.0,283.0,-20.0,159.0,11.0
1267,33.0,-963.0,280.0,-20.0,165.0,1.0
1268,27.0,-966.0,278.0,-19.0,163.0,-7.0
1269,23.0,-960.0,284.0,-19.0,152.0,-18.0
1270,23.0,-960.0,283.0,-23.0,143.0,-28.0
1271,29.0,-959.0,282.0,-27.0,136.0,-39.0
1272,44.0,-955.0,285.0,-29.0,130.0,-48.0
1273,37.0,-954.0,286.0,-30.0,137.0,-52.0
1274,3.0,-960.0,291.0,1.0,95.0,-60.0
1275,5.0,-961.0,285.0,-1.0,88.0,-94.0
1276,16.0,-958.0,287.0,2.0,77.0,-126.0
1277,18.0,-956.0,282.0,6.0,70.0,-149.0
1278,12.0,-945.0,286.0,14.0,62.0,-171.0
1279,15.0,-946.0,288.0,16.0,52.0,-198.0
1280,33.0,-953.0,285.0,13.0,39.0,-220.0
1281,69.0,-961.0,273.0,12.0,29.0,-225.0
1282,91.0,-961.0,269.0,21.0,28.0,-206.0
1283,85.0,-953.0,280.0,30.0,33.0,-170.0
1284,75.0,-970.0,282.0,-9.0,65.0,-1.0
1285,71.0,-1007.0,291.0,1.0,88.0,44.0
1286,93.0,-1027.0,281.0,7.0,79.0,55.0
1287,90.0,-1029.0,283.0,21.0,83.0,81.0
1288,51.0,-1060.0,284.0,42.0,102.0,105.0
1289,43.0,-1115.0,295.0,52.0,88.0,92.0
1290,120.0,-1150.0,267.0,74.0,78.0,70.0
1291,176.0,-1124.0,286.0,135.0,125.0,81.0
1292,54.0,-1199.0,302.0,179.0,230.0,105.0
1293,112.0,-1244.0,293.0,262.0,219.0,66.0
1294,49.0,-1324.0,316.0,355.0,244.0,13.0
1295,40.0,-1405.0,300.0,468.0,211.0,-72.0
1296,18.0,-1469.0,280.0,621.0,185.0,-202.0
1297,85.0,-1340.0,267.0,815.0,115.0,-399.0
1298,147.0,-1237.0,221.0,910.0,111.0,-464.0
1299,-148.0,-733.0,-485.0,-1225.0,474.0,558.0
1300,-59.0,-796.0,-430.0,-1352.0,375.0,551.0
1301,14.0,-857.0,-365.0,-1454.0,314.0,530.0
1302,46.0,-939.0,-283.0,-1541.0,284.0,504.0
1303,84.0,-1012.0,-211.0,-1596.0,254.0,498.0
1304,96.0,-1085.0,-134.0,-1620.0,236.0,494.0
1305,117.0,-1120.0,-61.0,-1613.0,215.0,469.0
1306,145.0,-1157.0,1.0,-1598.0,193.0,423.0
1307,159.0,-1196.0,60.0,-1580.0,180.0,360.0
1308,175.0,-1229.0,114.0,-1551.0,167.0,285.0
1309,171.0,-1222.0,163.0,-1508.0,169.0,221.0
1310,-77.0,-1094.0,409.0,-1054.0,230.0,61.0
1311,-85.0,-1022.0,401.0,-959.0,193.0,32.0
1312,-95.0,-964.0,408.0,-915.0,146.0,34.0
1313,-101.0,-963.0,411.0,-914.0,101.0,64.0
1314,-78.0,-1045.0,404.0,-898.0,61.0,84.0
1315,-59.0,-1075.0,397.0,-791.0,37.0,70.0
1316,-48.0,-1038.0,376.0,-638.0,18.0,50.0
1317,-22.0,-997.0,340.0,-510.0,-18.0,30.0
1318,45.0,-853.0,369.0,1031.0,-122.0,-322.0
1319,-17.0,-978.0,36.0,620.0,-81.0,-154.0
1320,-67.0,-989.0,94.0,416.0,52.0,-189.0
1321,9.0,-997.0,109.0,624.0,140.0,-231.0
1322,12.0,-966.0,148.0,652.0,160.0,-236.0
1323,4.0,-973.0,146.0,634.0,186.0,-234.0
1324,1.0,-982.0,144.0,626.0,190.0,-232.0
1325,0.0,-977.0,168.0,628.0,183.0,-237.0
1326,-27.0,-958.0,187.0,612.0,185.0,-256.0
1327,-38.0,-932.0,227.0,576.0,184.0,-295.0
1328,-38.0,-914.0,249.0,508.0,171.0,-338.0
1329,-9.0,-943.0,214.0,423.0,158.0,-373.0
1330,17.0,-939.0,240.0,379.0,133.0,-379.0
1331,84.0,-951.0,229.0,91.0,60.0,-177.0
1332,87.0,-968.0,235.0,82.0,67.0,-154.0
1333,37.0,-997.0,219.0,82.0,85.0,-145.0
1334,21.0,-978.0,241.0,100.0,83.0,-172.0
1335,45.0,-979.0,229.0,96.0,69.0,-212.0
1336,65.0,-971.0,235.0,96.0,63.0,-234.0
1337,90.0,-964.0,229.0,89.0,61.0,-230.0
1338,105.0,-953.0,219.0,88.0,58.0,-196.0
1339,116.0,-944.0,235.0,85.0,49.0,-143.0
1340,94.0,-959.0,221.0,78.0,51.0,-91.0
1341,101.0,-966.0,208.0,75.0,37.0,-42.0
1342,84.0,-975.0,236.0,-38.0,79.0,-62.0
1343,91.0,-967.0,237.0,-38.0,82.0,-52.0
1344,75.0,-962.0,243.0,-39.0,92.0,-40.0
1345,69.0,-960.0,239.0,-47.0,99.0,-42.0
1346,87.0,-948.0,241.0,-49.0,98.0,-43.0
1347,88.0,-952.0,247.0,-50.0,103.0,-31.0
1348,87.0,-967.0,236.0,-58.0,112.0,-23.0
1349,87.0,-974.0,229.0,-56.0,121.0,-19.0
1350,78.0,-966.0,239.0,-47.0,127.0,-14.0
1351,68.0,-967.0,229.0,-47.0,136.0,-13.0
1352,52.0,-961.0,236.0,-42.0,139.0,-17.0
1353,60.0,-1039.0,245.0,225.0,220.0,-79.0
1354,64.0,-1041.0,246.0,243.0,202.0,-81.0
1355,81.0,-1042.0,248.0,264.0,181.0,-78.0
1356,55.0,-1004.0,275.0,350.0,144.0,-78.0
1357,52.0,-1056.0,282.0,376.0,121.0,-75.0
1358,43.0,-1099.0,294.0,442.0,91.0,-91.0
1359,6.0,-1112.0,294.0,539.0,60.0,-111.0
1360,1.0,-1159.0,294.0,623.0,15.0,-117.0
1361,92.0,-1227.0,287.0,703.0,-55.0,-113.0
1362,165.0,-1209.0,272.0,849.0,-47.0,-93.0
1363,147.0,-1223.0,287.0,965.0,8.0,-57.0
1364,115.0,-1194.0,307.0,1061.0,54.0,-55.0
1365,54.0,-1208.0,336.0,1119.0,88.0,-82.0
1366,-24.0,-1183.0,357.0,1165.0,98.0,-129.0
1367,372.0,-1062.0,407.0,1374.0,99.0,-459.0
1368,363.0,-1120.0,465.0,1425.0,210.0,-524.0
1369,385.0,-1181.0,572.0,1512.0,313.0,-601.0
1370,363.0,-1145.0,390.0,1629.0,413.0,-683.0
1371,369.0,-1120.0,326.0,1671.0,512.0,-771.0
1372,305.0,-1215.0,345.0,1664.0,639.0,-834.0
1373,201.0,-1273.0,400.0,1738.0,744.0,-820.0
1374,171.0,-1277.0,434.0,1853.0,756.0,-776.0
1375,162.0,-1261.0,445.0,1958.0,751.0,-762.0
1376,140.0,-1261.0,466.0,2048.0,759.0,-744.0
1377,118.0,-1234.0,510.0,2158.0,747.0,-704.0
1378,-25.0,-934.0,-443.0,-1387.0,1218.0,910.0
1379,126.0,-1426.0,414.0,-3389.0,-605.0,-9.0
1380,164.0,-1564.0,499.0,-3369.0,-682.0,-124.0
1381,237.0,-1601.0,579.0,-3259.0,-706.0,-203.0
1382,200.0,-1625.0,635.0,-3133.0,-629.0,-183.0
1383,189.0,-1625.0,663.0,-3007.0,-562.0,-130.0
1384,161.0,-1648.0,670.0,-2876.0,-513.0,-117.0
1385,137.0,-1649.0,698.0,-2700.0,-502.0,-142.0
1386,68.0,-1537.0,743.0,-2481.0,-497.0,-172.0
1387,65.0,-1436.0,763.0,-2341.0,-519.0,-144.0
1388,18.0,-1386.0,802.0,-2272.0,-501.0,-81.0
1389,105.0,-1246.0,850.0,-2196.0,-519.0,-35.0
1390,-324.0,-651.0,1492.0,1164.0,-133.0,342.0
1391,-34.0,-867.0,377.0,546.0,-151.0,58.0
1392,84.0,-936.0,261.0,350.0,-210.0,12.0
1393,44.0,-995.0,171.0,250.0,-99.0,25.0
1394,-2.0,-1002.0,141.0,251.0,-3.0,1.0
1395,19.0,-971.0,187.0,299.0,25.0,-55.0
1396,60.0,-925.0,229.0,306.0,41.0,-88.0
1397,16.0,-953.0,215.0,277.0,107.0,-93.0
1398,-19.0,-976.0,204.0,270.0,144.0,-111.0
1399,32.0,-979.0,244.0,108.0,57.0,-251.0
1400,47.0,-978.0,239.0,103.0,43.0,-243.0
1401,86.0,-972.0,238.0,100.0,27.0,-227.0
1402,94.0,-966.0,247.0,97.0,31.0,-190.0
1403,67.0,-966.0,252.0,86.0,48.0,-154.0
1404,54.0,-970.0,239.0,70.0,57.0,-139.0
1405,70.0,-956.0,247.0,68.0,54.0,-127.0
1406,64.0,-964.0,246.0,59.0,54.0,-106.0
1407,67.0,-976.0,231.0,55.0,54.0,-93.0
1408,72.0,-965.0,249.0,61.0,50.0,-82.0
1409,93.0,-973.0,247.0,55.0,51.0,-68.0
1410,69.0,-957.0,253.0,38.0,126.0,22.0
1411,-15.0,-1507.0,352.0,1232.0,16.0,-46.0
1412,-9.0,-1543.0,360.0,1430.0,-43.0,-164.0
1413,4.0,-1592.0,385.0,1588.0,-65.0,-321.0
1414,130.0,-1375.0,371.0,1796.0,-95.0,-395.0
1415,-44.0,-1598.0,359.0,1754.0,40.0,-315.0
1416,-87.0,-1480.0,363.0,1844.0,69.0,-300.0
1417,-92.0,-1582.0,353.0,1913.0,20.0,-377.0
1418,-72.0,-1520.0,346.0,2066.0,-14.0,-413.0
1419,-32.0,-1495.0,295.0,2179.0,-38.0,-426.0
1420,61.0,-1491.0,253.0,2270.0,-62.0,-432.0
1421,165.0,-1473.0,207.0,2367.0,-57.0,-443.0
1422,-19.0,-46.0,194.0,1726.0,558.0,-545.0
1423,-259.0,-354.0,-368.0,-1416.0,679.0,-161.0
1424,-172.0,-371.0,-305.0,-2253.0,180.0,-41.0
1425,-115.0,-415.0,-275.0,-2528.0,87.0,-26.0
1426,-30.0,-554.0,-224.0,-2829.0,36.0,5.0
1427,31.0,-770.0,-144.0,-3071.0,42.0,33.0
1428,42.0,-906.0,-37.0,-3164.0,77.0,32.0
1429,30.0,-996.0,62.0,-3194.0,102.0,12.0
1430,36.0,-1057.0,145.0,-3210.0,93.0,-4.0
1431,31.0,-1102.0,225.0,-3236.0,78.0,-17.0
1432,-1.0,-1178.0,309.0,-3283.0,59.0,-12.0
1433,-65.0,-1265.0,389.0,-3301.0,11.0,20.0
1434,-176.0,-1337.0,466.0,-3274.0,-85.0,29.0
1435,102.0,-1458.0,681.0,-2265.0,-314.0,118.0
1436,254.0,-1190.0,1138.0,-1042.0,-318.0,-151.0
1437,-203.0,-1232.0,1560.0,714.0,-287.0,94.0
1438,-315.0,-830.0,1621.0,1255.0,-397.0,204.0
1439,-234.0,-422.0,1453.0,1275.0,-492.0,196.0
1440,-71.0,-395.0,1029.0,795.0,-441.0,225.0
1441,-219.0,-580.0,494.0,227.0,-247.0,170.0
1442,-344.0,-1381.0,-284.0,-459.0,-347.0,-92.0
1443,137.0,-1879.0,-1198.0,-568.0,-753.0,-354.0
1444,90.0,-1959.0,-1644.0,322.0,-575.0,-299.0
1445,30.0,-1932.0,-1337.0,1815.0,-331.0,-282.0
1446,31.0,-1329.0,-572.0,2902.0,-187.0,-300.0
1447,42.0,-702.0,267.0,2923.0,-197.0,-182.0
1448,-43.0,-958.0,197.0,515.0,-88.0,-150.0
1449,22.0,-912.0,268.0,227.0,23.0,-109.0
1450,40.0,-927.0,250.0,183.0,21.0,-117.0
1451,78.0,-937.0,248.0,152.0,26.0,-120.0
1452,37.0,-951.0,254.0,127.0,61.0,-113.0
1453,0.0,-980.0,244.0,107.0,81.0,-131.0
1454,16.0,-1008.0,212.0,104.0,72.0,-168.0
1455,51.0,-980.0,230.0,119.0,61.0,-188.0
1456,56.0,-958.0,245.0,121.0,70.0,-193.0
1457,37.0,-958.0,251.0,111.0,88.0,-200.0
1458,32.0,-960.0,244.0,103.0,93.0,-215.0
1459,38.0,-957.0,248.0,98.0,90.0,-228.0
1460,106.0,-925.0,261.0,90.0,116.0,-98.0
1461,65.0,-951.0,270.0,-1.0,132.0,-21.0
1462,54.0,-962.0,272.0,-6.0,135.0,-30.0
1463,66.0,-964.0,264.0,-10.0,129.0,-42.0
1464,81.0,-962.0,258.0,-7.0,121.0,-42.0
1465,92.0,-975.0,259.0,1.0,122.0,-33.0
1466,89.0,-978.0,254.0,15.0,126.0,-19.0
1467,95.0,-975.0,259.0,30.0,122.0,-3.0
1468,73.0,-989.0,271.0,41.0,130.0,11.0
1469,71.0,-990.0,264.0,50.0,132.0,10.0
1470,72.0,-978.0,260.0,61.0,131.0,5.0
1471,59.0,-972.0,261.0,72.0,136.0,3.0
1472,90.0,-959.0,286.0,164.0,166.0,-20.0
1473,60.0,-972.0,310.0,161.0,151.0,53.0
1474,59.0,-1050.0,309.0,163.0,152.0,62.0
1475,70.0,-1086.0,312.0,200.0,143.0,68.0
1476,120.0,-1089.0,302.0,249.0,122.0,86.0
1477,107.0,-1121.0,311.0,307.0,151.0,107.0
1478,20.0,-1100.0,339.0,384.0,188.0,107.0
1479,-58.0,-1116.0,351.0,433.0,174.0,67.0
1480,-46.0,-1137.0,355.0,467.0,83.0,7.0
1481,-4.0,-1139.0,354.0,531.0,26.0,-46.0
1482,14.0,-1133.0,348.0,614.0,5.0,-84.0
1483,22.0,-1097.0,359.0,690.0,3.0,-111.0
1484,115.0,-1011.0,430.0,725.0,199.0,-140.0
1485,-1.0,-735.0,321.0,580.0,28.0,-233.0
1486,-162.0,-697.0,14.0,-378.0,-46.0,149.0
1487,-167.0,-918.0,143.0,-1138.0,-1155.0,654.0
1488,-170.0,-957.0,158.0,-1152.0,-1199.0,690.0
1489,-149.0,-995.0,160.0,-1160.0,-1254.0,747.0
1490,-119.0,-1019.0,161.0,-1168.0,-1308.0,804.0
1491,-76.0,-1025.0,173.0,-1186.0,-1367.0,847.0
1492,-15.0,-1064.0,196.0,-1232.0,-1435.0,880.0
1493,29.0,-1127.0,237.0,-1268.0,-1506.0,905.0
1494,27.0,-1156.0,295.0,-1259.0,-1584.0,904.0
1495,42.0,-1134.0,342.0,-1227.0,-1695.0,892.0
1496,108.0,-1141.0,365.0,-1212.0,-1818.0,882.0
1497,152.0,-1171.0,393.0,-1187.0,-1904.0,852.0
1498,859.0,-916.0,521.0,-280.0,-2527.0,350.0
1499,-109.0,-1141.0,293.0,-78.0,108.0,-23.0
1500,-61.0,-1215.0,198.0,-84.0,50.0,-163.0
1501,67.0,-1199.0,175.0,-20.0,10.0,-259.0
1502,80.0,-1103.0,210.0,72.0,48.0,-280.0
1503,-25.0,-1008.0,279.0,110.0,116.0,-278.0
1504,-48.0,-971.0,295.0,79.0,122.0,-333.0
1505,48.0,-966.0,269.0,38.0,84.0,-374.0
1506,89.0,-957.0,267.0,30.0,71.0,-340.0
1507,56.0,-951.0,270.0,-16.0,-40.0,-126.0
1508,62.0,-946.0,269.0,-24.0,-44.0,-121.0
1509,53.0,-948.0,272.0,-30.0,-45.0,-111.0
1510,28.0,-958.0,267.0,-39.0,-47.0,-112.0
1511,34.0,-947.0,271.0,-41.0,-66.0,-128.0
1512,46.0,-946.0,271.0,-46.0,-82.0,-141.0
1513,46.0,-959.0,268.0,-54.0,-86.0,-150.0
1514,66.0,-975.0,257.0,-55.0,-92.0,-157.0
1515,85.0,-995.0,239.0,-44.0,-93.0,-153.0
1516,93.0,-979.0,247.0,-19.0,-86.0,-140.0
1517,88.0,-968.0,255.0,-1.0,-83.0,-119.0
1518,64.0,-969.0,254.0,4.0,-71.0,-104.0
1519,63.0,-959.0,264.0,10.0,-79.0,-103.0
1520,78.0,-960.0,264.0,10.0,-86.0,-101.0
1521,84.0,-963.0,260.0,10.0,-83.0,-95.0
1522,54.0,-959.0,263.0,33.0,-30.0,50.0
1523,78.0,-968.0,271.0,89.0,-58.0,118.0
1524,-127.0,-1214.0,333.0,314.0,-143.0,342.0
1525,-290.0,-1268.0,362.0,401.0,-156.0,467.0
1526,-452.0,-1271.0,405.0,532.0,-200.0,620.0
1527,-508.0,-1459.0,436.0,616.0,-358.0,799.0
1528,-497.0,-1513.0,432.0,812.0,-492.0,1126.0
1529,-506.0,-1488.0,409.0,1026.0,-539.0,1413.0
1530,-580.0,-1530.0,355.0,1141.0,-619.0,1530.0
1531,-113.0,-1617.0,242.0,1205.0,-1062.0,1407.0
1532,116.0,-1477.0,155.0,1392.0,-1228.0,1198.0
1533,193.0,-1495.0,123.0,1444.0,-1182.0,1146.0
1534,279.0,-1325.0,131.0,1534.0,-1166.0,1150.0
1535,252.0,-736.0,-528.0,-770.0,-4077.0,1768.0
1536,184.0,-709.0,-516.0,-859.0,-4043.0,1738.0
1537,113.0,-715.0,-509.0,-969.0,-4074.0,1722.0
1538,53.0,-726.0,-506.0,-1075.0,-4174.0,1720.0
1539,-41.0,-771.0,-494.0,-1190.0,-4329.0,1721.0
1540,-52.0,-870.0,-511.0,-1308.0,-4566.0,1732.0
1541,-50.0,-894.0,-505.0,-1362.0,-4811.0,1742.0
1542,-14.0,-953.0,-507.0,-1434.0,-5047.0,1720.0
1543,10.0,-1051.0,-514.0,-1494.0,-5250.0,1714.0
1544,1261.0,-1027.0,593.0,-751.0,-2127.0,461.0
1545,414.0,-570.0,403.0,657.0,85.0,586.0
1546,422.0,-869.0,28.0,326.0,317.0,668.0
1547,98.0,-847.0,-117.0,414.0,695.0,585.0
1548,-377.0,-777.0,408.0,446.0,833.0,189.0
1549,-554.0,-776.0,635.0,306.0,719.0,82.0
1550,-474.0,-805.0,602.0,88.0,484.0,-34.0
1551,-342.0,-933.0,426.0,-102.0,280.0,-199.0
1552,-242.0,-1007.0,272.0,-189.0,163.0,-376.0
1553,-136.0,-1019.0,288.0,-176.0,51.0,-524.0
1554,35.0,-1048.0,348.0,-165.0,-76.0,-575.0
1555,161.0,-1104.0,322.0,-185.0,-157.0,-507.0
1556,211.0,-1146.0,222.0,-189.0,-182.0,-386.0
1557,161.0,-1152.0,199.0,-163.0,-151.0,-266.0
1558,94.0,-1095.0,229.0,-111.0,-115.0,-203.0
1559,114.0,-972.0,266.0,103.0,-12.0,-170.0
1560,94.0,-973.0,272.0,100.0,4.0,-135.0
1561,68.0,-977.0,275.0,92.0,15.0,-117.0
1562,77.0,-986.0,264.0,85.0,15.0,-112.0
1563,72.0,-973.0,276.0,87.0,19.0,-103.0
1564,68.0,-989.0,273.0,83.0,21.0,-99.0
1565,43.0,-1004.0,250.0,90.0,25.0,-102.0
1566,49.0,-960.0,277.0,113.0,2.0,-112.0
1567,76.0,-929.0,297.0,110.0,-21.0,-115.0
1568,93.0,-923.0,299.0,84.0,-21.0,-111.0
1569,94.0,-927.0,291.0,58.0,-10.0,-97.0
1570,126.0,-951.0,268.0,-5.0,90.0,25.0
1571,105.0,-945.0,277.0,-6.0,108.0,58.0
1572,90.0,-975.0,282.0,-14.0,119.0,73.0
1573,116.0,-1037.0,236.0,-12.0,130.0,72.0
1574,94.0,-978.0,275.0,30.0,149.0,82.0
1575,93.0,-981.0,273.0,38.0,152.0,95.0
1576,95.0,-1002.0,265.0,41.0,162.0,101.0
1577,98.0,-988.0,268.0,56.0,164.0,114.0
1578,97.0,-971.0,277.0,63.0,160.0,137.0
1579,75.0,-974.0,278.0,58.0,165.0,159.0
1580,73.0,-971.0,278.0,53.0,162.0,166.0
1581,58.0,-961.0,267.0,-109.0,77.0,0.0
1582,47.0,-946.0,268.0,-25.0,76.0,-32.0
1583,37.0,-951.0,267.0,-31.0,79.0,-29.0
1584,35.0,-948.0,266.0,-35.0,76.0,-33.0
1585,37.0,-950.0,266.0,-40.0,73.0,-37.0
1586,51.0,-949.0,260.0,-42.0,67.0,-40.0
1587,40.0,-941.0,264.0,-42.0,70.0,-36.0
1588,14.0,-938.0,266.0,-43.0,71.0,-39.0
1589,-15.0,-943.0,270.0,-44.0,64.0,-62.0
1590,2.0,-953.0,270.0,-47.0,42.0,-101.0
1591,31.0,-970.0,268.0,-50.0,28.0,-131.0
1592,54.0,-967.0,255.0,-49.0,23.0,-140.0
1593,17.0,-945.0,265.0,-29.0,26.0,-131.0
1594,67.0,-1043.0,259.0,150.0,78.0,19.0
1595,72.0,-1084.0,252.0,177.0,81.0,21.0
1596,73.0,-1086.0,266.0,211.0,79.0,24.0
1597,49.0,-1102.0,273.0,229.0,72.0,30.0
1598,18.0,-1114.0,288.0,244.0,55.0,22.0
1599,4.0,-1161.0,302.0,249.0,7.0,-2.0
1600,36.0,-1209.0,306.0,262.0,-63.0,-36.0
1601,29.0,-1236.0,317.0,327.0,-78.0,-60.0
1602,10.0,-1277.0,329.0,418.0,-84.0,-82.0
1603,-4.0,-1309.0,339.0,547.0,-84.0,-110.0
1604,0.0,-1349.0,342.0,671.0,-90.0,-150.0
1605,517.0,-35.0,-1060.0,-114.0,1554.0,8.0
1606,20.0,-1197.0,-141.0,-2541.0,-514.0,187.0
1607,24.0,-1235.0,-61.0,-2496.0,-593.0,228.0
1608,-35.0,-1283.0,16.0,-2456.0,-671.0,216.0
1609,-88.0,-1312.0,65.0,-2411.0,-806.0,201.0
1610,-177.0,-1305.0,128.0,-2358.0,-970.0,239.0
1611,-214.0,-1275.0,168.0,-2337.0,-1179.0,324.0
1612,-158.0,-1264.0,187.0,-2350.0,-1401.0,455.0
1613,-64.0,-1301.0,211.0,-2375.0,-1568.0,561.0
1614,29.0,-1394.0,245.0,-2354.0,-1646.0,574.0
1615,109.0,-1393.0,296.0,-2227.0,-1632.0,535.0
1616,158.0,-1389.0,344.0,-2091.0,-1517.0,523.0
1617,9.0,-1014.0,642.0,-24.0,443.0,-137.0
1618,-420.0,-1499.0,-810.0,962.0,-1041.0,19.0
1619,-13.0,-1036.0,112.0,1290.0,678.0,-505.0
1620,23.0,-886.0,291.0,821.0,3.0,-239.0
1621,32.0,-893.0,285.0,665.0,21.0,-190.0
1622,1.0,-909.0,268.0,524.0,46.0,-149.0
1623,-19.0,-903.0,268.0,413.0,63.0,-127.0
1624,-65.0,-908.0,267.0,304.0,74.0,-117.0
1625,-25.0,-956.0,219.0,196.0,51.0,-124.0
1626,-17.0,-973.0,205.0,140.0,38.0,-122.0
1627,-12.0,-979.0,193.0,106.0,26.0,-107.0
1628,-27.0,-943.0,227.0,392.0,127.0,-157.0
1629,-34.0,-932.0,242.0,381.0,128.0,-175.0
1630,-30.0,-925.0,269.0,365.0,119.0,-198.0
1631,-6.0,-922.0,268.0,330.0,107.0,-218.0
1632,17.0,-936.0,251.0,302.0,102.0,-219.0
1633,-13.0,-944.0,238.0,304.0,109.0,-209.0
1634,-44.0,-933.0,264.0,315.0,104.0,-224.0
1635,-43.0,-936.0,298.0,290.0,84.0,-267.0
1636,-22.0,-933.0,306.0,237.0,71.0,-309.0
1637,9.0,-940.0,291.0,188.0,65.0,-333.0
1638,56.0,-940.0,288.0,147.0,52.0,-322.0
1639,14.0,-956.0,279.0,-50.0,46.0,37.0
1640,12.0,-949.0,278.0,-58.0,47.0,14.0
1641,30.0,-964.0,261.0,-70.0,51.0,-12.0
1642,44.0,-962.0,261.0,-69.0,60.0,-32.0
1643,17.0,-962.0,266.0,-70.0,68.0,-34.0
1644,37.0,-960.0,253.0,-73.0,65.0,-44.0
1645,14.0,-957.0,267.0,-68.0,69.0,-50.0
1646,29.0,-954.0,269.0,-69.0,63.0,-64.0
1647,34.0,-953.0,270.0,-71.0,60.0,-69.0
1648,98.0,-975.0,230.0,1.0,65.0,-94.0
1649,53.0,-956.0,255.0,-95.0,190.0,33.0
1650,13.0,-972.0,255.0,11.0,180.0,24.0
1651,18.0,-979.0,240.0,17.0,172.0,19.0
1652,36.0,-982.0,245.0,37.0,158.0,20.0
1653,5.0,-1000.0,234.0,55.0,164.0,26.0
1654,-2.0,-1006.0,233.0,80.0,155.0,17.0
1655,3.0,-1021.0,241.0,103.0,141.0,1.0
1656,24.0,-1047.0,220.0,127.0,140.0,-15.0
1657,31.0,-1031.0,240.0,174.0,140.0,-16.0
1658,70.0,-1026.0,242.0,206.0,145.0,-12.0
1659,-51.0,-1440.0,361.0,1105.0,1.0,262.0
1660,37.0,-1467.0,368.0,1294.0,-28.0,295.0
1661,186.0,-1455.0,343.0,1452.0,14.0,339.0
1662,156.0,-1477.0,347.0,1564.0,150.0,353.0
1663,-96.0,-1232.0,465.0,1657.0,221.0,269.0
1664,-47.0,-1530.0,436.0,1501.0,101.0,-34.0
1665,-113.0,-1431.0,393.0,1638.0,92.0,-124.0
1666,-113.0,-1404.0,344.0,1712.0,45.0,-155.0
1667,-42.0,-1359.0,326.0,1770.0,-32.0,-184.0
1668,16.0,-1549.0,318.0,1821.0,-61.0,-218.0
1669,20.0,-1370.0,303.0,2043.0,-51.0,-258.0
1670,-112.0,-438.0,211.0,1925.0,364.0,-276.0
1671,-177.0,-150.0,52.0,1598.0,292.0,-171.0
1672,141.0,-216.0,-352.0,978.0,161.0,11.0
1673,-87.0,-294.0,-370.0,344.0,417.0,124.0
1674,-216.0,-783.0,-313.0,-181.0,532.0,247.0
1675,-291.0,-553.0,-254.0,-93.0,442.0,239.0
1676,-348.0,-386.0,-241.0,-197.0,343.0,154.0
1677,-321.0,-462.0,-270.0,-501.0,189.0,182.0
1678,-187.0,-408.0,-292.0,-667.0,35.0,312.0
1679,-86.0,-405.0,-308.0,-861.0,-2.0,426.0
1680,-68.0,-434.0,-309.0,-1048.0,39.0,441.0
1681,6.0,-1159.0,236.0,-3052.0,-441.0,195.0
1682,59.0,-1160.0,598.0,-1930.0,-274.0,-7.0
1683,136.0,-1161.0,600.0,-1886.0,-286.0,-43.0
1684,127.0,-1164.0,635.0,-1829.0,-257.0,-104.0
1685,75.0,-1117.0,690.0,-1742.0,-228.0,-137.0
1686,52.0,-1162.0,728.0,-1673.0,-203.0,-95.0
1687,87.0,-1199.0,767.0,-1528.0,-179.0,-43.0
1688,142.0,-1185.0,799.0,-1322.0,-129.0,-82.0
1689,176.0,-1063.0,775.0,-1099.0,-25.0,-156.0
1690,75.0,-947.0,700.0,-970.0,147.0,-187.0
1691,-2.0,-940.0,671.0,-943.0,286.0,-189.0
1692,26.0,-1014.0,675.0,-909.0,372.0,-150.0
1693,-58.0,-1923.0,-1333.0,1042.0,-663.0,157.0
1694,-180.0,-1022.0,-112.0,1266.0,-85.0,-193.0
1695,-59.0,-991.0,166.0,491.0,130.0,-282.0
1696,-35.0,-1010.0,160.0,480.0,104.0,-280.0
1697,-15.0,-1001.0,181.0,485.0,90.0,-285.0
1698,-44.0,-1009.0,146.0,485.0,113.0,-294.0
1699,-81.0,-939.0,191.0,524.0,116.0,-312.0
1700,-58.0,-892.0,236.0,523.0,91.0,-339.0
1701,-13.0,-914.0,238.0,472.0,73.0,-344.0
1702,-3.0,-916.0,273.0,421.0,76.0,-331.0
1703,-2.0,-930.0,257.0,358.0,86.0,-328.0
1704,-32.0,-946.0,224.0,314.0,105.0,-333.0
1705,45.0,-966.0,239.0,62.0,60.0,-153.0
1706,43.0,-969.0,231.0,58.0,54.0,-139.0
1707,38.0,-979.0,224.0,60.0,52.0,-133.0
1708,59.0,-963.0,238.0,74.0,46.0,-129.0
1709,61.0,-955.0,245.0,77.0,53.0,-119.0
1710,54.0,-965.0,245.0,71.0,65.0,-115.0
1711,47.0,-965.0,240.0,61.0,79.0,-119.0
1712,54.0,-963.0,235.0,52.0,87.0,-123.0
1713,56.0,-955.0,247.0,49.0,92.0,-119.0
1714,53.0,-978.0,224.0,42.0,99.0,-114.0
1715,69.0,-970.0,224.0,53.0,98.0,-104.0
1716,37.0,-984.0,244.0,-45.0,177.0,-38.0
1717,68.0,-1003.0,245.0,171.0,187.0,-50.0
1718,61.0,-1005.0,256.0,193.0,196.0,-24.0
1719,25.0,-1010.0,262.0,224.0,214.0,7.0
1720,10.0,-1017.0,268.0,229.0,193.0,11.0
1721,-1.0,-1043.0,267.0,241.0,176.0,8.0
1722,30.0,-1070.0,268.0,267.0,145.0,5.0
1723,55.0,-1126.0,278.0,321.0,127.0,8.0
1724,22.0,-1140.0,287.0,417.0,124.0,2.0
1725,-10.0,-1164.0,284.0,515.0,86.0,-11.0
1726,-51.0,-1225.0,317.0,634.0,31.0,-34.0
1727,-91.0,-1319.0,335.0,804.0,-70.0,-64.0
1728,1.0,-1269.0,287.0,1030.0,-188.0,-73.0
1729,37.0,-1188.0,316.0,1206.0,-162.0,-59.0
1730,13.0,-1134.0,339.0,1264.0,-120.0,-28.0
1731,351.0,-1220.0,316.0,1740.0,348.0,-632.0
1732,-246.0,-443.0,-71.0,-183.0,354.0,61.0
1733,-229.0,-437.0,-97.0,-387.0,216.0,77.0
1734,-116.0,-479.0,-158.0,-588.0,80.0,157.0
1735,-26.0,-369.0,-184.0,-697.0,20.0,234.0
1736,3.0,-316.0,-182.0,-914.0,44.0,243.0
1737,1.0,-301.0,-180.0,-1165.0,102.0,271.0
1738,0.0,-298.0,-187.0,-1412.0,166.0,342.0
1739,5.0,-345.0,-192.0,-1670.0,229.0,388.0
1740,-9.0,-420.0,-178.0,-1902.0,296.0,398.0
1741,-30.0,-470.0,-138.0,-2086.0,350.0,409.0
1742,-91.0,-557.0,-81.0,-2267.0,398.0,438.0
1743,-48.0,-1388.0,463.0,-2645.0,28.0,345.0
1744,83.0,-1282.0,403.0,-2135.0,8.0,269.0
1745,92.0,-1341.0,431.0,-2106.0,51.0,248.0
1746,5.0,-1346.0,511.0,-2004.0,99.0,246.0
1747,66.0,-1362.0,492.0,-1866.0,87.0,245.0
1748,154.0,-1271.0,507.0,-1707.0,65.0,251.0
1749,230.0,-1264.0,524.0,-1611.0,68.0,208.0
1750,240.0,-1240.0,551.0,-1484.0,94.0,117.0
1751,187.0,-1238.0,588.0,-1339.0,126.0,5.0
1752,115.0,-1177.0,629.0,-1160.0,129.0,-101.0
1753,0.0,-975.0,689.0,-996.0,106.0,-189.0
1754,-44.0,-889.0,705.0,-1004.0,28.0,-229.0
1755,-70.0,-1101.0,705.0,-1074.0,-56.0,-180.0
1756,-84.0,-1163.0,742.0,-913.0,-154.0,-162.0
1757,-85.0,-1106.0,780.0,-658.0,-260.0,-198.0
1758,-100.0,-1063.0,797.0,-432.0,-359.0,-201.0
1759,264.0,-802.0,609.0,2035.0,-900.0,-280.0
1760,258.0,-806.0,614.0,1762.0,-413.0,-420.0
1761,202.0,-890.0,319.0,1508.0,-95.0,-469.0
1762,10.0,-985.0,45.0,1310.0,137.0,-436.0
1763,-123.0,-1030.0,-77.0,1245.0,197.0,-428.0
1764,-20.0,-991.0,-18.0,1274.0,131.0,-447.0
1765,24.0,-870.0,129.0,1285.0,155.0,-413.0
1766,23.0,-845.0,256.0,1177.0,244.0,-374.0
1767,-23.0,-888.0,313.0,1005.0,279.0,-356.0
1768,-8.0,-898.0,314.0,869.0,191.0,-328.0
1769,40.0,-907.0,261.0,671.0,142.0,-265.0
1770,49.0,-981.0,256.0,81.0,59.0,-148.0
1771,24.0,-991.0,252.0,80.0,67.0,-155.0
1772,40.0,-979.0,254.0,86.0,56.0,-169.0
1773,62.0,-967.0,254.0,91.0,47.0,-174.0
1774,70.0,-958.0,256.0,94.0,49.0,-166.0
1775,59.0,-944.0,265.0,97.0,55.0,-153.0
1776,54.0,-932.0,270.0,94.0,50.0,-142.0
1777,34.0,-932.0,271.0,88.0,44.0,-132.0
1778,45.0,-935.0,275.0,82.0,30.0,-135.0
1779,37.0,-948.0,274.0,74.0,23.0,-137.0
1780,36.0,-986.0,257.0,66.0,14.0,-143.0
1781,59.0,-964.0,269.0,98.0,-32.0,-80.0
1782,121.0,-932.0,276.0,10.0,38.0,-49.0
1783,96.0,-936.0,280.0,-3.0,58.0,-34.0
1784,99.0,-941.0,277.0,-13.0,61.0,-25.0
1785,108.0,-940.0,272.0,-19.0,66.0,-16.0
1786,81.0,-942.0,282.0,-24.0,77.0,-5.0
1787,70.0,-944.0,286.0,-32.0,81.0,-11.0
1788,76.0,-953.0,279.0,-40.0,79.0,-23.0
1789,89.0,-951.0,277.0,-44.0,75.0,-27.0
1790,97.0,-953.0,278.0,-49.0,74.0,-20.0
1791,96.0,-957.0,279.0,-56.0,79.0,-13.0
1792,91.0,-956.0,273.0,-62.0,84.0,-5.0
1793,67.0,-958.0,275.0,-14.0,92.0,-48.0
1794,107.0,-1021.0,272.0,126.0,119.0,54.0
1795,101.0,-1014.0,279.0,139.0,123.0,77.0
1796,88.0,-1000.0,284.0,147.0,130.0,92.0
1797,76.0,-989.0,288.0,148.0,129.0,99.0
1798,65.0,-976.0,293.0,147.0,125.0,98.0
1799,65.0,-993.0,283.0,136.0,104.0,93.0
1800,55.0,-986.0,283.0,152.0,96.0,85.0
1801,79.0,-967.0,292.0,177.0,81.0,79.0
1802,68.0,-953.0,296.0,192.0,82.0,84.0
1803,71.0,-934.0,289.0,205.0,75.0,86.0
1804,53.0,-936.0,294.0,207.0,66.0,94.0
1805,62.0,-930.0,313.0,-31.0,31.0,-5.0
1806,-24.0,-1062.0,328.0,-20.0,73.0,58.0
1807,-47.0,-1077.0,330.0,4.0,52.0,67.0
1808,-64.0,-1098.0,332.0,35.0,28.0,102.0
1809,-75.0,-1121.0,335.0,78.0,-6.0,156.0
1810,-95.0,-1151.0,341.0,133.0,-35.0,222.0
1811,-149.0,-1151.0,357.0,212.0,-59.0,306.0
1812,-186.0,-1175.0,355.0,277.0,-95.0,392.0
1813,-201.0,-1065.0,357.0,382.0,-175.0,429.0
1814,-193.0,-1016.0,351.0,386.0,-281.0,366.0
1815,-252.0,-900.0,-26.0,58.0,-2327.0,723.0
1816,-225.0,-887.0,-42.0,51.0,-2449.0,736.0
1817,-173.0,-846.0,-58.0,30.0,-2551.0,773.0
1818,-174.0,-872.0,-64.0,-33.0,-2613.0,818.0
1819,-154.0,-890.0,-66.0,-81.0,-2679.0,858.0
1820,-200.0,-900.0,-51.0,-104.0,-2724.0,898.0
1821,-198.0,-895.0,-28.0,-128.0,-2793.0,936.0
1822,-141.0,-923.0,-25.0,-163.0,-2867.0,985.0
1823,-84.0,-929.0,-20.0,-179.0,-2914.0,1018.0
1824,-29.0,-921.0,-28.0,-194.0,-2937.0,1026.0
1825,-40.0,-940.0,-25.0,-225.0,-2935.0,1030.0
1826,232.0,-1053.0,109.0,-374.0,-3182.0,860.0
1827,288.0,-821.0,396.0,23.0,245.0,193.0
1828,235.0,-861.0,401.0,-114.0,261.0,325.0
1829,221.0,-950.0,287.0,-220.0,275.0,438.0
1830,92.0,-1064.0,216.0,-227.0,358.0,509.0
1831,43.0,-1077.0,231.0,-130.0,378.0,521.0
1832,27.0,-1108.0,279.0,-32.0,351.0,506.0
1833,-76.0,-1096.0,332.0,50.0,356.0,478.0
1834,-150.0,-1117.0,318.0,62.0,331.0,380.0
1835,-113.0,-1101.0,313.0,64.0,255.0,234.0
1836,-118.0,-1115.0,310.0,34.0,206.0,84.0
1837,-176.0,-1088.0,309.0,7.0,184.0,-64.0
1838,111.0,-955.0,278.0,-6.0,-17.0,-156.0
1839,130.0,-962.0,273.0,-8.0,-10.0,-129.0
1840,119.0,-962.0,267.0,-7.0,9.0,-99.0
1841,70.0,-966.0,274.0,-7.0,29.0,-83.0
1842,50.0,-932.0,288.0,-5.0,22.0,-93.0
1843,40.0,-942.0,289.0,-19.0,4.0,-121.0
1844,81.0,-956.0,274.0,-32.0,-19.0,-152.0
1845,119.0,-949.0,266.0,-29.0,-33.0,-152.0
1846,156.0,-965.0,262.0,-31.0,-68.0,43.0
1847,94.0,-967.0,264.0,50.0,-27.0,122.0
1848,63.0,-956.0,279.0,115.0,-47.0,130.0
1849,89.0,-953.0,284.0,118.0,-63.0,123.0
1850,98.0,-961.0,285.0,116.0,-65.0,125.0
1851,105.0,-996.0,270.0,113.0,-55.0,132.0
1852,114.0,-992.0,275.0,126.0,-45.0,143.0
1853,97.0,-1021.0,272.0,128.0,-28.0,156.0
1854,78.0,-1036.0,279.0,139.0,-16.0,169.0
1855,63.0,-1048.0,288.0,152.0,-14.0,179.0
1856,62.0,-1078.0,295.0,157.0,-22.0,188.0
1857,52.0,-1118.0,298.0,158.0,-31.0,200.0
1858,52.0,-1139.0,304.0,164.0,-60.0,232.0
1859,-89.0,-818.0,257.0,746.0,-767.0,745.0
1860,281.0,-825.0,-225.0,3.0,-3006.0,703.0
1861,87.0,-829.0,95.0,-746.0,-2018.0,941.0
1862,79.0,-878.0,124.0,-825.0,-2035.0,933.0
1863,89.0,-919.0,152.0,-866.0,-2073.0,932.0
1864,100.0,-938.0,181.0,-877.0,-2118.0,936.0
1865,94.0,-966.0,210.0,-887.0,-2172.0,925.0
1866,78.0,-988.0,241.0,-885.0,-2238.0,905.0
1867,71.0,-1000.0,270.0,-869.0,-2327.0,885.0
1868,90.0,-992.0,289.0,-844.0,-2427.0,862.0
1869,129.0,-985.0,307.0,-818.0,-2519.0,842.0
1870,178.0,-942.0,317.0,-787.0,-2583.0,825.0
1871,228.0,-922.0,330.0,-790.0,-2607.0,809.0
1872,547.0,-1309.0,606.0,142.0,-246.0,-41.0
1873,-67.0,-1027.0,299.0,61.0,179.0,-6.0
1874,-19.0,-1035.0,276.0,55.0,155.0,-47.0
1875,-42.0,-1027.0,282.0,62.0,164.0,-58.0
1876,-72.0,-1016.0,287.0,65.0,157.0,-77.0
1877,-89.0,-1007.0,288.0,62.0,127.0,-114.0
1878,-56.0,-1017.0,269.0,60.0,81.0,-159.0
1879,-34.0,-1002.0,264.0,77.0,54.0,-190.0
1880,-11.0,-986.0,270.0,88.0,42.0,-203.0
1881,-6.0,-976.0,272.0,89.0,42.0,-206.0
1882,9.0,-968.0,273.0,89.0,42.0,-206.0
1883,11.0,-957.0,280.0,86.0,49.0,-199.0
1884,28.0,-950.0,291.0,-92.0,13.0,-157.0
1885,85.0,-957.0,285.0,-110.0,-120.0,-249.0
1886,70.0,-1020.0,256.0,-54.0,-73.0,-195.0
1887,82.0,-1011.0,250.0,-40.0,-70.0,-188.0
1888,91.0,-1013.0,255.0,-28.0,-61.0,-172.0
1889,93.0,-1013.0,247.0,-18.0,-45.0,-161.0
1890,93.0,-999.0,252.0,-4.0,-30.0,-147.0
1891,88.0,-1015.0,239.0,3.0,-9.0,-137.0
1892,89.0,-1002.0,245.0,24.0,7.0,-133.0
1893,89.0,-991.0,254.0,41.0,19.0,-124.0
1894,85.0,-983.0,251.0,47.0,29.0,-113.0
1895,96.0,-958.0,266.0,55.0,33.0,-100.0
1896,93.0,-948.0,271.0,52.0,39.0,-79.0
1897,78.0,-952.0,270.0,-30.0,63.0,-61.0
1898,78.0,-958.0,265.0,-30.0,62.0,-56.0
1899,78.0,-964.0,257.0,-28.0,60.0,-50.0
1900,81.0,-950.0,267.0,-18.0,55.0,-42.0
1901,82.0,-950.0,270.0,-19.0,50.0,-34.0
1902,77.0,-948.0,273.0,-25.0,49.0,-29.0
1903,79.0,-947.0,274.0,-34.0,49.0,-29.0
1904,64.0,-946.0,277.0,-44.0,53.0,-35.0
1905,59.0,-956.0,275.0,-55.0,55.0,-51.0
1906,70.0,-970.0,260.0,-61.0,54.0,-72.0
1907,77.0,-965.0,262.0,-55.0,53.0,-83.0
1908,97.0,-971.0,255.0,5.0,90.0,-2.0
1909,60.0,-1057.0,292.0,236.0,57.0,49.0
1910,66.0,-1074.0,300.0,262.0,48.0,51.0
1911,61.0,-1093.0,310.0,288.0,37.0,53.0
1912,30.0,-1128.0,322.0,334.0,41.0,46.0
1913,-20.0,-1164.0,335.0,396.0,30.0,26.0
1914,-1.0,-1230.0,337.0,465.0,-36.0,-5.0
1915,35.0,-1298.0,335.0,590.0,-76.0,-23.0
1916,54.0,-1370.0,333.0,754.0,-95.0,-26.0
1917,47.0,-1373.0,339.0,934.0,-93.0,-38.0
1918,9.0,-1399.0,354.0,1064.0,-96.0,-73.0
1919,11.0,-1447.0,325.0,1191.0,-100.0,-94.0
1920,-81.0,-338.0,-927.0,-780.0,-372.0,728.0
1921,195.0,-1335.0,-117.0,-2693.0,-977.0,736.0
1922,270.0,-1411.0,-49.0,-2708.0,-1018.0,745.0
1923,352.0,-1479.0,31.0,-2694.0,-1020.0,723.0
1924,362.0,-1520.0,128.0,-2637.0,-966.0,687.0
1925,371.0,-1494.0,217.0,-2532.0,-908.0,645.0
1926,363.0,-1434.0,278.0,-2431.0,-838.0,582.0
1927,387.0,-1362.0,317.0,-2376.0,-763.0,518.0
1928,402.0,-1395.0,356.0,-2385.0,-644.0,485.0
1929,33.0,-875.0,263.0,-160.0,229.0,82.0
1930,67.0,-856.0,232.0,-105.0,171.0,92.0
1931,121.0,-876.0,222.0,-77.0,134.0,97.0
1932,210.0,-947.0,207.0,-40.0,139.0,92.0
1933,254.0,-934.0,204.0,59.0,203.0,54.0
1934,144.0,-1308.0,218.0,150.0,297.0,2.0
1935,91.0,-1058.0,197.0,603.0,264.0,151.0
1936,2.0,-872.0,113.0,818.0,248.0,268.0
1937,-180.0,-762.0,41.0,770.0,224.0,284.0
1938,-269.0,-968.0,-69.0,628.0,115.0,366.0
1939,-411.0,-1083.0,-151.0,660.0,38.0,418.0
1940,-37.0,-1049.0,-34.0,767.0,-112.0,-105.0
1941,-9.0,-995.0,190.0,81.0,36.0,-232.0
1942,-2.0,-952.0,228.0,105.0,30.0,-230.0
1943,1.0,-940.0,242.0,93.0,28.0,-223.0
1944,14.0,-950.0,228.0,66.0,29.0,-213.0
1945,9.0,-955.0,224.0,52.0,30.0,-191.0
1946,-18.0,-961.0,221.0,44.0,35.0,-181.0
1947,-23.0,-964.0,218.0,42.0,28.0,-195.0
1948,-3.0,-961.0,227.0,46.0,14.0,-214.0
1949,1.0,-972.0,216.0,43.0,16.0,-227.0
1950,5.0,-977.0,223.0,48.0,23.0,-243.0
1951,8.0,-972.0,230.0,47.0,33.0,-259.0
1952,66.0,-976.0,218.0,53.0,90.0,-103.0
1953,43.0,-1043.0,231.0,146.0,226.0,-92.0
1954,93.0,-1042.0,222.0,176.0,207.0,-82.0
1955,71.0,-1046.0,234.0,211.0,226.0,-64.0
1956,37.0,-1045.0,249.0,244.0,233.0,-62.0
1957,19.0,-1047.0,251.0,288.0,239.0,-94.0
1958,35.0,-1074.0,242.0,335.0,218.0,-144.0
1959,52.0,-1105.0,268.0,418.0,182.0,-204.0
1960,54.0,-969.0,275.0,535.0,116.0,-262.0
1961,9.0,-988.0,274.0,545.0,102.0,-227.0
1962,75.0,-1367.0,406.0,1025.0,-30.0,-87.0
1963,127.0,-1351.0,401.0,1144.0,-36.0,-107.0
1964,129.0,-1335.0,407.0,1245.0,-12.0,-153.0
1965,76.0,-1332.0,413.0,1329.0,13.0,-220.0
1966,17.0,-1326.0,401.0,1399.0,17.0,-301.0
1967,-23.0,-1415.0,406.0,1473.0,-3.0,-372.0
1968,22.0,-1360.0,414.0,1623.0,-51.0,-425.0
1969,114.0,-1385.0,416.0,1735.0,-88.0,-475.0
1970,181.0,-1375.0,414.0,1869.0,-77.0,-533.0
1971,244.0,-1302.0,384.0,2008.0,-41.0,-556.0
1972,319.0,-1301.0,333.0,2070.0,24.0,-604.0
1973,-173.0,-645.0,459.0,2585.0,331.0,-632.0
1974,-197.0,-279.0,-239.0,-1557.0,172.0,521.0
1975,-239.0,-328.0,-240.0,-1772.0,138.0,740.0
1976,-223.0,-339.0,-234.0,-1971.0,69.0,919.0
1977,-225.0,-334.0,-209.0,-2186.0,2.0,1000.0
1978,-186.0,-413.0,-209.0,-2457.0,-91.0,1018.0
1979,-119.0,-545.0,-217.0,-2688.0,-181.0,1032.0
1980,-46.0,-590.0,-199.0,-2815.0,-231.0,1054.0
1981,29.0,-609.0,-171.0,-2943.0,-232.0,1070.0
1982,138.0,-708.0,-137.0,-3122.0,-205.0,1072.0
1983,170.0,-842.0,-73.0,-3259.0,-121.0,1045.0
1984,87.0,-957.0,12.0,-3327.0,-20.0,992.0
1985,411.0,-1499.0,528.0,-2916.0,25.0,502.0
1986,-214.0,-1187.0,706.0,-1437.0,621.0,149.0
1987,-328.0,-1217.0,711.0,-1317.0,472.0,120.0
1988,-342.0,-1179.0,663.0,-1132.0,262.0,159.0
1989,-271.0,-1117.0,613.0,-948.0,53.0,179.0
1990,-164.0,-1047.0,589.0,-811.0,-107.0,121.0
1991,-97.0,-1040.0,568.0,-725.0,-184.0,68.0
1992,-73.0,-1030.0,541.0,-628.0,-200.0,49.0
1993,-46.0,-1028.0,520.0,-524.0,-209.0,15.0
1994,-56.0,-1036.0,510.0,-402.0,-204.0,-23.0
1995,-55.0,-959.0,506.0,-255.0,-218.0,-45.0
1996,-38.0,-942.0,477.0,-171.0,-223.0,-49.0
1997,-99.0,-1370.0,-379.0,348.0,-53.0,-149.0
1998,-26.0,-1044.0,28.0,846.0,111.0,-261.0
1999,-27.0,-1093.0,1.0,800.0,35.0,-208.0
2000,-76.0,-1081.0,-2.0,835.0,-42.0,-164.0
2001,-45.0,-1032.0,13.0,884.0,-151.0,-157.0
2002,-23.0,-936.0,101.0,911.0,-202.0,-136.0
2003,-16.0,-847.0,222.0,879.0,-203.0,-111.0
2004,1.0,-831.0,259.0,779.0,-175.0,-111.0
2005,27.0,-856.0,250.0,675.0,-128.0,-123.0
2006,14.0,-860.0,222.0,606.0,-58.0,-129.0
2007,-81.0,-879.0,225.0,562.0,18.0,-156.0
2008,43.0,-986.0,208.0,81.0,296.0,-590.0
2009,69.0,-985.0,235.0,128.0,128.0,4.0
2010,69.0,-975.0,234.0,131.0,125.0,-8.0
2011,80.0,-963.0,238.0,133.0,125.0,-17.0
2012,79.0,-963.0,237.0,127.0,131.0,-19.0
2013,95.0,-963.0,217.0,119.0,127.0,-10.0
2014,107.0,-955.0,223.0,120.0,118.0,21.0
2015,112.0,-940.0,239.0,122.0,112.0,57.0
2016,100.0,-943.0,249.0,114.0,117.0,91.0
2017,68.0,-950.0,245.0,104.0,128.0,108.0
2018,47.0,-941.0,251.0,98.0,128.0,104.0
2019,52.0,-943.0,256.0,89.0,119.0,91.0
2020,49.0,-962.0,259.0,144.0,128.0,-64.0
2021,40.0,-974.0,284.0,258.0,132.0,-47.0
2022,101.0,-946.0,330.0,510.0,37.0,-106.0
2023,83.0,-950.0,334.0,509.0,58.0,-105.0
2024,93.0,-959.0,351.0,513.0,60.0,-104.0
2025,73.0,-957.0,362.0,512.0,66.0,-100.0
2026,76.0,-953.0,363.0,510.0,65.0,-105.0
2027,89.0,-968.0,365.0,513.0,63.0,-111.0
2028,88.0,-951.0,367.0,523.0,69.0,-121.0
2029,46.0,-967.0,386.0,518.0,80.0,-132.0
2030,2.0,-992.0,390.0,521.0,72.0,-138.0
2031,17.0,-985.0,386.0,541.0,42.0,-125.0
2032,63.0,-990.0,399.0,556.0,13.0,-117.0
2033,87.0,-1126.0,460.0,1189.0,165.0,-497.0
2034,115.0,-1100.0,673.0,1875.0,577.0,-569.0
2035,160.0,-1061.0,601.0,1960.0,519.0,-528.0
2036,122.0,-1014.0,591.0,2019.0,521.0,-504.0
2037,66.0,-934.0,578.0,2071.0,511.0,-462.0
2038,4.0,-755.0,640.0,2091.0,445.0,-407.0
2039,91.0,-605.0,599.0,2002.0,296.0,-350.0
2040,101.0,-323.0,523.0,1855.0,244.0,-307.0
2041,13.0,-82.0,415.0,1523.0,266.0,-251.0
2042,-34.0,-946.0,61.0,-3197.0,175.0,816.0
2043,23.0,-1027.0,113.0,-3188.0,86.0,777.0
2044,32.0,-1058.0,189.0,-3153.0,11.0,691.0
2045,43.0,-1092.0,255.0,-3140.0,-92.0,615.0
2046,107.0,-1115.0,302.0,-3145.0,-213.0,588.0
2047,159.0,-1160.0,350.0,-3188.0,-295.0,576.0
2048,152.0,-1240.0,420.0,-3260.0,-334.0,544.0
2049,186.0,-1390.0,476.0,-3301.0,-384.0,529.0
2050,198.0,-1460.0,529.0,-3210.0,-393.0,528.0
2051,204.0,-1453.0,558.0,-3056.0,-374.0,510.0
2052,233.0,-1436.0,574.0,-2919.0,-354.0,484.0
2053,263.0,-1424.0,589.0,-2709.0,-261.0,454.0
2054,177.0,-815.0,805.0,-1310.0,-111.0,-50.0
2055,129.0,-1240.0,903.0,-1381.0,-15.0,125.0
2056,144.0,-1190.0,1030.0,-1010.0,13.0,94.0
2057,110.0,-1076.0,1173.0,-640.0,73.0,-54.0
2058,9.0,-1091.0,1261.0,-354.0,130.0,-130.0
2059,-41.0,-1095.0,1279.0,-13.0,93.0,-127.0
2060,-21.0,-1035.0,1256.0,363.0,27.0,-99.0
2061,-13.0,-856.0,1196.0,703.0,2.0,-43.0
2062,94.0,-244.0,1011.0,753.0,-23.0,-15.0
2063,88.0,-411.0,741.0,228.0,2.0,-43.0
2064,23.0,-580.0,338.0,-350.0,-52.0,-72.0
2065,174.0,-1563.0,-497.0,-955.0,-183.0,-85.0
2066,235.0,-1916.0,-1320.0,-511.0,-28.0,-44.0
2067,78.0,-1959.0,-1915.0,449.0,304.0,41.0
2068,-76.0,-1919.0,-1802.0,2324.0,551.0,89.0
2069,82.0,-946.0,209.0,663.0,38.0,-150.0
2070,35.0,-939.0,247.0,322.0,86.0,-98.0
2071,50.0,-984.0,206.0,197.0,135.0,-253.0
2072,39.0,-960.0,236.0,206.0,137.0,-279.0
2073,74.0,-948.0,237.0,201.0,121.0,-300.0
2074,108.0,-950.0,229.0,186.0,112.0,-299.0
2075,111.0,-954.0,247.0,176.0,114.0,-274.0
2076,95.0,-952.0,245.0,157.0,116.0,-249.0
2077,85.0,-953.0,245.0,139.0,107.0,-230.0
2078,101.0,-973.0,234.0,121.0,91.0,-220.0
2079,129.0,-990.0,243.0,94.0,71.0,-38.0
2080,114.0,-946.0,267.0,52.0,97.0,9.0
2081,102.0,-955.0,260.0,50.0,103.0,17.0
2082,101.0,-948.0,267.0,54.0,104.0,21.0
2083,95.0,-945.0,271.0,52.0,105.0,22.0
2084,91.0,-938.0,275.0,48.0,104.0,21.0
2085,87.0,-937.0,276.0,42.0,100.0,18.0
2086,102.0,-941.0,272.0,35.0,95.0,12.0
2087,110.0,-940.0,270.0,32.0,97.0,14.0
2088,91.0,-942.0,274.0,31.0,105.0,19.0
2089,89.0,-950.0,272.0,25.0,107.0,12.0
2090,95.0,-952.0,272.0,23.0,105.0,5.0
2091,80.0,-950.0,284.0,90.0,136.0,75.0
2092,75.0,-961.0,281.0,84.0,134.0,75.0
2093,83.0,-962.0,275.0,80.0,129.0,72.0
2094,84.0,-960.0,282.0,76.0,123.0,78.0
2095,103.0,-995.0,289.0,80.0,123.0,120.0
2096,79.0,-1067.0,265.0,71.0,136.0,134.0
2097,78.0,-1029.0,292.0,109.0,125.0,136.0
2098,75.0,-1059.0,287.0,120.0,125.0,136.0
2099,82.0,-1072.0,290.0,140.0,126.0,127.0
2100,84.0,-1057.0,296.0,172.0,124.0,124.0
2101,64.0,-1053.0,303.0,193.0,122.0,118.0
2102,58.0,-1039.0,309.0,220.0,108.0,98.0
2103,53.0,-1036.0,305.0,250.0,103.0,75.0
2104,86.0,-864.0,333.0,162.0,169.0,4.0
2105,19.0,-931.0,368.0,111.0,118.0,33.0
2106,-3.0,-1019.0,387.0,241.0,-8.0,24.0
2107,10.0,-1035.0,388.0,270.0,-34.0,16.0
2108,39.0,-1055.0,385.0,304.0,-54.0,4.0
2109,76.0,-1060.0,384.0,344.0,-59.0,-8.0
2110,96.0,-1071.0,382.0,379.0,-48.0,-28.0
2111,97.0,-1090.0,380.0,415.0,-29.0,-46.0
2112,92.0,-1112.0,389.0,459.0,-9.0,-70.0
2113,101.0,-1156.0,384.0,521.0,15.0,-107.0
2114,149.0,-1114.0,375.0,612.0,46.0,-144.0
2115,-78.0,-681.0,-57.0,154.0,-223.0,26.0
2116,-55.0,-680.0,-40.0,25.0,-219.0,154.0
2117,-7.0,-667.0,-53.0,-93.0,-213.0,171.0
2118,-65.0,-647.0,-56.0,-212.0,-144.0,211.0
2119,-102.0,-646.0,-58.0,-345.0,-122.0,301.0
2120,-105.0,-656.0,-59.0,-472.0,-145.0,376.0
2121,-126.0,-671.0,-44.0,-582.0,-183.0,421.0
2122,-143.0,-685.0,-21.0,-670.0,-255.0,443.0
2123,-135.0,-704.0,-2.0,-746.0,-353.0,464.0
2124,-149.0,-682.0,31.0,-807.0,-442.0,483.0
2125,-164.0,-694.0,52.0,-902.0,-537.0,503.0
2126,488.0,-977.0,460.0,-464.0,-1888.0,546.0
2127,126.0,-1210.0,-34.0,420.0,296.0,455.0
2128,153.0,-1028.0,220.0,651.0,343.0,514.0
2129,23.0,-892.0,550.0,580.0,441.0,579.0
2130,-152.0,-954.0,558.0,271.0,522.0,573.0
2131,-127.0,-1064.0,351.0,29.0,426.0,478.0
2132,-131.0,-1106.0,218.0,-37.0,264.0,302.0
2133,-120.0,-1108.0,197.0,-17.0,185.0,173.0
2134,-84.0,-1099.0,179.0,18.0,121.0,44.0
2135,-104.0,-1043.0,221.0,64.0,90.0,-53.0
2136,-95.0,-992.0,266.0,70.0,57.0,-155.0
2137,-57.0,-1001.0,245.0,38.0,38.0,-253.0
2138,-24.0,-1010.0,220.0,30.0,38.0,-321.0
2139,11.0,-974.0,232.0,57.0,35.0,-355.0
2140,62.0,-957.0,241.0,67.0,29.0,-351.0
2141,65.0,-1009.0,204.0,90.0,71.0,-267.0
2142,56.0,-955.0,262.0,-43.0,8.0,-149.0
2143,54.0,-960.0,260.0,-61.0,0.0,-155.0
2144,78.0,-969.0,256.0,-76.0,-11.0,-161.0
2145,113.0,-973.0,241.0,-88.0,-12.0,-151.0
2146,98.0,-952.0,254.0,-89.0,1.0,-124.0
2147,100.0,-957.0,249.0,-106.0,9.0,-102.0
2148,78.0,-965.0,251.0,-121.0,17.0,-89.0
2149,96.0,-965.0,245.0,-135.0,11.0,-86.0
2150,92.0,-962.0,244.0,-145.0,14.0,-73.0
2151,92.0,-956.0,246.0,-158.0,20.0,-66.0
2152,81.0,-963.0,241.0,-172.0,27.0,-63.0
2153,94.0,-959.0,240.0,-177.0,23.0,-65.0
2154,78.0,-1002.0,203.0,-11.0,-79.0,-51.0
2155,57.0,-988.0,213.0,7.0,-97.0,-56.0
2156,93.0,-977.0,210.0,23.0,-132.0,-59.0
2157,96.0,-969.0,212.0,36.0,-148.0,-48.0
2158,91.0,-965.0,209.0,45.0,-159.0,-33.0
2159,109.0,-954.0,221.0,55.0,-180.0,-21.0
2160,117.0,-947.0,223.0,54.0,-185.0,-4.0
2161,144.0,-954.0,220.0,51.0,-186.0,13.0
2162,127.0,-954.0,221.0,48.0,-166.0,28.0
2163,133.0,-953.0,216.0,46.0,-152.0,37.0
2164,121.0,-966.0,211.0,44.0,-137.0,52.0
2165,133.0,-979.0,207.0,57.0,-45.0,56.0
2166,88.0,-965.0,233.0,77.0,87.0,130.0
2167,-13.0,-929.0,304.0,9.0,-8.0,214.0
2168,-42.0,-910.0,355.0,-79.0,-44.0,227.0
2169,-17.0,-972.0,374.0,-213.0,-124.0,243.0
2170,-99.0,-1095.0,347.0,-354.0,-181.0,303.0
2171,-172.0,-1225.0,305.0,-435.0,-319.0,395.0
2172,-261.0,-1256.0,282.0,-432.0,-537.0,591.0
2173,-426.0,-1286.0,240.0,-427.0,-824.0,951.0
2174,-666.0,-1301.0,221.0,-381.0,-1174.0,1392.0
2175,-683.0,-1423.0,220.0,-266.0,-1777.0,1685.0
2176,-576.0,-1400.0,142.0,18.0,-2499.0,1975.0
2177,-240.0,-1121.0,10.0,294.0,-3319.0,1930.0
2178,26.0,-810.0,-454.0,394.0,-3954.0,790.0
2179,20.0,-811.0,-451.0,284.0,-3894.0,847.0
2180,-26.0,-830.0,-442.0,176.0,-3843.0,907.0
2181,-67.0,-851.0,-434.0,77.0,-3837.0,960.0
2182,-126.0,-880.0,-423.0,-12.0,-3882.0,1010.0
2183,-187.0,-909.0,-400.0,-100.0,-4002.0,1056.0
2184,-226.0,-948.0,-354.0,-186.0,-4200.0,1093.0
2185,-207.0,-971.0,-312.0,-251.0,-4450.0,1129.0
2186,-170.0,-978.0,-279.0,-296.0,-4702.0,1154.0
2187,-70.0,-996.0,-266.0,-335.0,-4940.0,1158.0
2188,2.0,-1017.0,-246.0,-343.0,-5097.0,1164.0
2189,818.0,-909.0,254.0,-169.0,-3089.0,1056.0
2190,867.0,-916.0,336.0,-131.0,-2926.0,909.0
2191,927.0,-885.0,395.0,-79.0,-2756.0,738.0
2192,959.0,-869.0,439.0,-44.0,-2564.0,543.0
2193,963.0,-888.0,481.0,-13.0,-2352.0,351.0
2194,983.0,-961.0,515.0,45.0,-2133.0,185.0
2195,1024.0,-1059.0,500.0,174.0,-1910.0,6.0
2196,1070.0,-1066.0,481.0,414.0,-1656.0,-216.0
2197,1113.0,-981.0,538.0,693.0,-1294.0,-445.0
2198,-23.0,-992.0,259.0,130.0,-108.0,-816.0
2199,115.0,-957.0,252.0,-45.0,-20.0,-115.0
2200,116.0,-964.0,241.0,-47.0,-12.0,-103.0
2201,114.0,-962.0,246.0,-41.0,-2.0,-90.0
2202,104.0,-967.0,240.0,-37.0,4.0,-81.0
2203,99.0,-969.0,244.0,-32.0,3.0,-76.0
2204,113.0,-969.0,242.0,-28.0,-8.0,-72.0
2205,114.0,-956.0,246.0,-23.0,-10.0,-65.0
2206,117.0,-957.0,244.0,-23.0,-6.0,-58.0
2207,107.0,-954.0,248.0,-23.0,0.0,-55.0
2208,100.0,-954.0,248.0,-25.0,2.0,-54.0
2209,109.0,-958.0,240.0,-117.0,34.0,51.0
2210,136.0,-976.0,203.0,-105.0,80.0,-53.0
2211,107.0,-959.0,224.0,-88.0,93.0,-32.0
2212,117.0,-970.0,213.0,-86.0,96.0,-27.0
2213,116.0,-976.0,207.0,-83.0,103.0,-21.0
2214,111.0,-979.0,204.0,-69.0,106.0,-13.0
2215,105.0,-978.0,205.0,-55.0,107.0,-9.0
2216,88.0,-976.0,209.0,-43.0,106.0,-13.0
2217,93.0,-977.0,203.0,-33.0,98.0,-24.0
2218,113.0,-976.0,200.0,-19.0,88.0,-31.0
2219,112.0,-962.0,211.0,-4.0,87.0,-22.0
2220,118.0,-957.0,214.0,2.0,87.0,-12.0
2221,128.0,-997.0,179.0,-14.0,106.0,-22.0
2222,118.0,-983.0,205.0,-21.0,98.0,-4.0
2223,113.0,-982.0,201.0,-14.0,99.0,9.0
2224,99.0,-987.0,203.0,4.0,103.0,21.0
2225,106.0,-995.0,194.0,21.0,98.0,22.0
2226,103.0,-978.0,210.0,47.0,92.0,29.0
2227,104.0,-972.0,215.0,61.0,87.0,38.0
2228,101.0,-979.0,209.0,69.0,87.0,45.0
2229,95.0,-975.0,213.0,81.0,87.0,51.0
2230,94.0,-969.0,220.0,91.0,86.0,54.0
2231,83.0,-1178.0,258.0,271.0,14.0,69.0
2232,87.0,-1249.0,275.0,276.0,-23.0,59.0
2233,57.0,-1324.0,278.0,342.0,-11.0,37.0
2234,45.0,-1366.0,288.0,481.0,1.0,24.0
2235,0.0,-1427.0,298.0,667.0,22.0,49.0
2236,-18.0,-1442.0,302.0,910.0,20.0,180.0
2237,-86.0,-1290.0,288.0,1137.0,29.0,435.0
2238,-43.0,-1233.0,265.0,1202.0,-42.0,422.0
2239,11.0,-1278.0,227.0,1183.0,-120.0,186.0
2240,-38.0,-1175.0,218.0,1228.0,-152.0,158.0
2241,-94.0,-1111.0,139.0,1215.0,-221.0,148.0
2242,273.0,-889.0,-748.0,-2361.0,-169.0,579.0
2243,43.0,-822.0,2.0,157.0,-256.0,79.0
2244,53.0,-924.0,0.0,121.0,-226.0,33.0
2245,23.0,-958.0,16.0,182.0,-174.0,36.0
2246,-11.0,-938.0,26.0,273.0,-122.0,31.0
2247,-11.0,-997.0,0.0,328.0,-85.0,-4.0
2248,25.0,-1022.0,-55.0,413.0,-55.0,-24.0
2249,62.0,-982.0,-103.0,513.0,-38.0,-49.0
2250,63.0,-954.0,-132.0,573.0,-37.0,-102.0
2251,-5.0,-891.0,-138.0,610.0,-40.0,-121.0
2252,-25.0,-898.0,-132.0,597.0,-81.0,-102.0
2253,-3.0,-1000.0,-108.0,593.0,-127.0,-84.0
2254,41.0,-781.0,286.0,1956.0,-336.0,-207.0
2255,-42.0,-964.0,184.0,203.0,31.0,-104.0
2256,-12.0,-1015.0,140.0,193.0,36.0,-125.0
2257,17.0,-1020.0,133.0,239.0,38.0,-136.0
2258,-4.0,-987.0,145.0,304.0,55.0,-142.0
2259,-15.0,-950.0,198.0,361.0,62.0,-159.0
2260,-19.0,-925.0,247.0,375.0,71.0,-192.0
2261,-2.0,-937.0,247.0,318.0,94.0,-223.0
2262,-9.0,-955.0,213.0,248.0,115.0,-240.0
2263,-33.0,-954.0,220.0,215.0,123.0,-260.0
2264,-38.0,-953.0,238.0,189.0,126.0,-299.0
2265,1.0,-964.0,228.0,139.0,126.0,-334.0
2266,40.0,-961.0,222.0,61.0,127.0,-313.0
2267,31.0,-978.0,196.0,-21.0,113.0,-155.0
2268,63.0,-973.0,212.0,-33.0,87.0,-111.0
2269,75.0,-974.0,212.0,-35.0,93.0,-102.0
2270,61.0,-975.0,200.0,-33.0,108.0,-91.0
2271,61.0,-969.0,203.0,-26.0,116.0,-83.0
2272,39.0,-970.0,208.0,-24.0,118.0,-77.0
2273,48.0,-985.0,197.0,-28.0,116.0,-81.0
2274,63.0,-982.0,201.0,-21.0,112.0,-82.0
2275,60.0,-981.0,207.0,-13.0,118.0,-77.0
2276,78.0,-982.0,213.0,89.0,184.0,-67.0
2277,75.0,-989.0,209.0,93.0,203.0,-56.0
2278,76.0,-998.0,205.0,107.0,229.0,-53.0
2279,43.0,-985.0,214.0,134.0,260.0,-50.0
2280,71.0,-994.0,203.0,141.0,261.0,-48.0
2281,34.0,-983.0,215.0,156.0,258.0,-27.0
2282,32.0,-976.0,217.0,167.0,218.0,-7.0
2283,35.0,-1016.0,206.0,174.0,185.0,11.0
2284,33.0,-1046.0,189.0,203.0,165.0,12.0
2285,69.0,-1030.0,209.0,261.0,140.0,17.0
2286,43.0,-1407.0,344.0,1616.0,128.0,339.0
2287,424.0,-1349.0,249.0,2403.0,678.0,-569.0
2288,-282.0,-665.0,-239.0,241.0,510.0,-113.0
2289,-376.0,-399.0,-178.0,250.0,490.0,-54.0
2290,-411.0,-478.0,-213.0,-30.0,419.0,19.0
2291,-293.0,-458.0,-262.0,-227.0,285.0,185.0
2292,-262.0,-407.0,-280.0,-407.0,252.0,337.0
2293,-188.0,-385.0,-311.0,-631.0,234.0,393.0
2294,-142.0,-367.0,-325.0,-850.0,254.0,441.0
2295,-123.0,-349.0,-327.0,-1075.0,297.0,501.0
2296,-126.0,-392.0,-325.0,-1323.0,328.0,538.0
2297,-126.0,-425.0,-311.0,-1547.0,325.0,552.0
2298,-139.0,-478.0,-284.0,-1765.0,291.0,565.0
2299,109.0,-1501.0,592.0,-2513.0,-498.0,-204.0
2300,145.0,-1445.0,581.0,-2395.0,-729.0,-264.0
2301,179.0,-1402.0,546.0,-2313.0,-908.0,-287.0
2302,173.0,-1357.0,502.0,-2246.0,-1026.0,-308.0
2303,149.0,-1320.0,469.0,-2204.0,-1092.0,-318.0
2304,128.0,-1320.0,444.0,-2184.0,-1109.0,-268.0
2305,110.0,-1324.0,433.0,-2147.0,-1078.0,-171.0
2306,70.0,-1317.0,423.0,-2092.0,-1002.0,-104.0
2307,19.0,-1295.0,417.0,-2041.0,-920.0,-69.0
2308,-7.0,-1103.0,490.0,-1220.0,208.0,-134.0
2309,52.0,-1074.0,515.0,-1113.0,239.0,-129.0
2310,47.0,-1077.0,533.0,-1012.0,301.0,-144.0
2311,5.0,-1069.0,526.0,-883.0,355.0,-168.0
2312,-61.0,-1045.0,521.0,-743.0,377.0,-183.0
2313,-134.0,-1036.0,504.0,-611.0,361.0,-183.0
2314,-146.0,-950.0,492.0,-473.0,288.0,-175.0
2315,-177.0,-904.0,491.0,-408.0,209.0,-177.0
2316,-150.0,-984.0,474.0,-384.0,107.0,-178.0
2317,-116.0,-989.0,475.0,-275.0,21.0,-171.0
2318,-112.0,-953.0,491.0,-146.0,-32.0,-172.0
2319,109.0,-1628.0,-1172.0,2728.0,171.0,-139.0
2320,13.0,-970.0,153.0,596.0,50.0,-182.0
2321,32.0,-1009.0,92.0,528.0,77.0,-217.0
2322,18.0,-1005.0,113.0,520.0,80.0,-229.0
2323,25.0,-980.0,155.0,512.0,65.0,-243.0
2324,60.0,-978.0,161.0,484.0,52.0,-245.0
2325,58.0,-1003.0,116.0,468.0,64.0,-242.0
2326,20.0,-986.0,137.0,496.0,84.0,-250.0
2327,59.0,-937.0,208.0,504.0,79.0,-263.0
2328,56.0,-959.0,207.0,449.0,85.0,-253.0
2329,56.0,-1004.0,141.0,403.0,84.0,-246.0
2330,57.0,-1005.0,150.0,416.0,85.0,-242.0
2331,93.0,-969.0,212.0,120.0,128.0,-78.0
2332,82.0,-971.0,217.0,-15.0,141.0,-44.0
2333,74.0,-963.0,224.0,-14.0,143.0,-38.0
2334,88.0,-964.0,222.0,-16.0,139.0,-36.0
2335,76.0,-974.0,207.0,-19.0,146.0,-28.0
2336,75.0,-959.0,225.0,-11.0,141.0,-22.0
2337,84.0,-955.0,228.0,-11.0,132.0,-15.0
2338,73.0,-970.0,213.0,-18.0,137.0,-8.0
2339,79.0,-955.0,232.0,-12.0,130.0,-3.0
2340,70.0,-957.0,234.0,-18.0,131.0,2.0
2341,79.0,-963.0,226.0,-27.0,132.0,2.0
2342,81.0,-978.0,226.0,-30.0,137.0,2.0
2343,67.0,-980.0,227.0,106.0,159.0,-10.0
2344,108.0,-1029.0,242.0,311.0,142.0,-6.0
2345,91.0,-1033.0,257.0,335.0,154.0,27.0
2346,91.0,-1041.0,258.0,351.0,156.0,45.0
2347,95.0,-1049.0,263.0,374.0,162.0,61.0
2348,99.0,-1054.0,262.0,402.0,184.0,77.0
2349,85.0,-1056.0,272.0,436.0,203.0,98.0
2350,80.0,-1080.0,281.0,470.0,206.0,111.0
2351,69.0,-1121.0,293.0,513.0,192.0,113.0
2352,24.0,-1162.0,309.0,596.0,194.0,96.0
2353,50.0,-1247.0,322.0,658.0,115.0,80.0
2354,342.0,-1451.0,240.0,2396.0,283.0,-635.0
2355,377.0,-1462.0,309.0,2518.0,415.0,-676.0
2356,304.0,-1262.0,213.0,2686.0,619.0,-694.0
2357,216.0,-1140.0,196.0,2714.0,752.0,-678.0
2358,159.0,-1123.0,252.0,2670.0,791.0,-676.0
2359,119.0,-1094.0,352.0,2672.0,753.0,-652.0
2360,141.0,-1048.0,369.0,2682.0,681.0,-631.0
2361,178.0,-985.0,307.0,2680.0,654.0,-638.0
2362,111.0,-984.0,249.0,2659.0,710.0,-638.0
2363,22.0,-935.0,237.0,2688.0,740.0,-640.0
2364,43.0,-924.0,245.0,2716.0,687.0,-663.0
2365,-376.0,492.0,4.0,-1707.0,199.0,294.0
2366,152.0,-1486.0,413.0,-2459.0,78.0,312.0
2367,227.0,-1476.0,334.0,-2422.0,183.0,293.0
2368,263.0,-1449.0,359.0,-2410.0,308.0,241.0
2369,284.0,-1521.0,422.0,-2335.0,436.0,182.0
2370,143.0,-1484.0,536.0,-2128.0,591.0,76.0
2371,-41.0,-1421.0,623.0,-1887.0,685.0,-34.0
2372,-122.0,-1310.0,694.0,-1658.0,670.0,-67.0
2373,-180.0,-1147.0,751.0,-1485.0,642.0,-56.0
2374,-98.0,-1190.0,738.0,-1426.0,588.0,-29.0
2375,21.0,-1259.0,722.0,-1281.0,577.0,-6.0
2376,-9.0,-1209.0,770.0,-1021.0,658.0,-9.0
2377,342.0,-1133.0,-425.0,454.0,-395.0,-580.0
2378,44.0,-1050.0,8.0,1308.0,310.0,-260.0
2379,11.0,-1017.0,-25.0,1377.0,264.0,-247.0
2380,-26.0,-1018.0,33.0,1377.0,207.0,-225.0
2381,12.0,-886.0,209.0,1337.0,112.0,-201.0
2382,54.0,-843.0,301.0,1147.0,76.0,-189.0
2383,75.0,-947.0,196.0,903.0,120.0,-188.0
2384,23.0,-997.0,149.0,811.0,163.0,-197.0
2385,13.0,-870.0,293.0,823.0,147.0,-221.0
2386,48.0,-830.0,319.0,694.0,149.0,-261.0
2387,56.0,-946.0,225.0,223.0,132.0,-211.0
2388,79.0,-968.0,233.0,46.0,123.0,-168.0
2389,108.0,-970.0,228.0,35.0,114.0,-174.0
2390,130.0,-972.0,222.0,24.0,109.0,-157.0
2391,125.0,-974.0,210.0,19.0,113.0,-127.0
2392,117.0,-964.0,221.0,27.0,117.0,-103.0
2393,104.0,-942.0,244.0,33.0,116.0,-88.0
2394,101.0,-949.0,244.0,23.0,115.0,-83.0
2395,105.0,-970.0,224.0,12.0,116.0,-81.0
2396,123.0,-970.0,223.0,15.0,111.0,-76.0
2397,135.0,-963.0,225.0,21.0,112.0,-63.0
2398,117.0,-957.0,230.0,24.0,124.0,-45.0
2399,117.0,-994.0,226.0,127.0,176.0,-55.0
2400,129.0,-990.0,225.0,152.0,176.0,-47.0
2401,139.0,-996.0,220.0,175.0,179.0,-28.0
2402,133.0,-985.0,238.0,204.0,183.0,0.0
2403,120.0,-989.0,243.0,219.0,191.0,23.0
2404,103.0,-1004.0,246.0,231.0,196.0,33.0
2405,103.0,-990.0,257.0,246.0,190.0,31.0
2406,106.0,-985.0,261.0,253.0,189.0,27.0
2407,95.0,-991.0,267.0,255.0,193.0,22.0
2408,270.0,-1474.0,336.0,1035.0,62.0,-600.0
2409,-89.0,-851.0,310.0,2405.0,850.0,-1222.0
2410,-170.0,-702.0,354.0,2319.0,773.0,-1150.0
2411,-229.0,-565.0,390.0,2201.0,671.0,-1072.0
2412,-237.0,-455.0,387.0,2046.0,540.0,-988.0
2413,-217.0,-311.0,381.0,1887.0,413.0,-901.0
2414,-228.0,-122.0,386.0,1679.0,334.0,-800.0
2415,-251.0,-37.0,363.0,1355.0,261.0,-650.0
2416,-138.0,-4.0,208.0,994.0,134.0,-477.0
2417,202.0,163.0,-167.0,632.0,58.0,-346.0
2418,243.0,307.0,-324.0,62.0,413.0,-224.0
2419,0.0,-113.0,-275.0,-717.0,967.0,-41.0
2420,169.0,-1173.0,294.0,-2537.0,-363.0,977.0
2421,178.0,-1235.0,336.0,-2493.0,-333.0,998.0
2422,200.0,-1248.0,365.0,-2445.0,-317.0,1012.0
2423,235.0,-1308.0,373.0,-2436.0,-305.0,1031.0
2424,257.0,-1373.0,391.0,-2411.0,-284.0,1026.0
2425,226.0,-1419.0,425.0,-2353.0,-243.0,973.0
2426,237.0,-1426.0,447.0,-2261.0,-227.0,903.0
2427,258.0,-1412.0,463.0,-2163.0,-197.0,836.0
2428,381.0,-1271.0,299.0,-2019.0,559.0,654.0
2429,346.0,-1277.0,290.0,-1996.0,715.0,606.0
2430,225.0,-1303.0,320.0,-1949.0,847.0,479.0
2431,136.0,-1306.0,346.0,-1858.0,904.0,380.0
2432,-8.0,-1276.0,381.0,-1737.0,922.0,336.0
2433,-133.0,-1259.0,422.0,-1623.0,860.0,306.0
2434,-278.0,-1249.0,465.0,-1503.0,734.0,301.0
2435,-316.0,-1197.0,423.0,-1355.0,522.0,329.0
2436,36.0,-933.0,276.0,-128.0,-526.0,191.0
2437,45.0,-1005.0,84.0,903.0,181.0,-449.0
2438,-36.0,-990.0,171.0,777.0,251.0,-269.0
2439,-28.0,-866.0,278.0,763.0,237.0,-297.0
2440,13.0,-886.0,285.0,611.0,239.0,-331.0
2441,21.0,-934.0,234.0,462.0,263.0,-340.0
2442,-24.0,-914.0,266.0,397.0,264.0,-321.0
2443,-4.0,-924.0,257.0,331.0,229.0,-325.0
2444,7.0,-922.0,256.0,272.0,218.0,-330.0
2445,37.0,-922.0,252.0,222.0,206.0,-313.0
2446,10.0,-926.0,250.0,180.0,219.0,-289.0
2447,8.0,-931.0,253.0,144.0,218.0,-287.0
2448,16.0,-958.0,222.0,111.0,212.0,-293.0
2449,78.0,-978.0,211.0,20.0,52.0,-91.0
2450,29.0,-978.0,216.0,27.0,55.0,-64.0
2451,38.0,-970.0,223.0,35.0,34.0,-64.0
2452,50.0,-975.0,226.0,37.0,22.0,-63.0
2453,38.0,-996.0,208.0,37.0,19.0,-57.0
2454,15.0,-990.0,205.0,51.0,10.0,-61.0
2455,42.0,-953.0,238.0,75.0,-13.0,-80.0
2456,52.0,-974.0,230.0,70.0,-15.0,-85.0
2457,74.0,-987.0,230.0,172.0,-50.0,-92.0
2458,91.0,-947.0,255.0,131.0,-68.0,-53.0
2459,60.0,-938.0,267.0,77.0,-5.0,70.0
2460,67.0,-931.0,266.0,64.0,-6.0,70.0
2461,86.0,-928.0,270.0,52.0,-9.0,74.0
2462,60.0,-936.0,268.0,39.0,12.0,76.0
2463,29.0,-934.0,277.0,26.0,14.0,69.0
2464,25.0,-947.0,269.0,8.0,1.0,56.0
2465,64.0,-937.0,269.0,0.0,-27.0,48.0
2466,62.0,-935.0,280.0,-15.0,-26.0,49.0
2467,51.0,-957.0,279.0,-38.0,-22.0,45.0
2468,75.0,-968.0,264.0,-55.0,-27.0,38.0
2469,73.0,-974.0,243.0,-160.0,-12.0,-6.0
2470,69.0,-988.0,239.0,-164.0,-14.0,1.0
2471,62.0,-996.0,235.0,-162.0,-15.0,8.0
2472,67.0,-985.0,234.0,-156.0,-21.0,15.0
2473,54.0,-987.0,237.0,-151.0,-22.0,17.0
2474,73.0,-986.0,231.0,-148.0,-27.0,15.0
2475,56.0,-986.0,233.0,-148.0,-18.0,16.0
2476,53.0,-987.0,232.0,-150.0,-16.0,14.0
2477,60.0,-990.0,229.0,-151.0,-17.0,7.0
2478,55.0,-992.0,229.0,-153.0,-10.0,0.0
2479,34.0,-997.0,228.0,-155.0,-4.0,-3.0
2480,-200.0,-1198.0,149.0,-138.0,-515.0,709.0
2481,-490.0,-707.0,513.0,-74.0,-1687.0,1200.0
2482,140.0,-1556.0,-91.0,-614.0,-4759.0,1535.0
2483,179.0,-1377.0,-152.0,-185.0,-4783.0,1267.0
2484,191.0,-1242.0,-199.0,71.0,-4821.0,1004.0
2485,173.0,-1267.0,-245.0,206.0,-4835.0,832.0
2486,157.0,-1200.0,-266.0,424.0,-4853.0,743.0
2487,127.0,-1125.0,-277.0,586.0,-4870.0,697.0
2488,153.0,-1078.0,-298.0,662.0,-4902.0,718.0
2489,327.0,-879.0,-527.0,313.0,-4431.0,582.0
2490,363.0,-868.0,-533.0,187.0,-4277.0,620.0
2491,382.0,-855.0,-515.0,72.0,-4070.0,656.0
2492,354.0,-840.0,-467.0,-45.0,-3822.0,686.0
2493,350.0,-855.0,-430.0,-190.0,-3585.0,725.0
2494,334.0,-891.0,-390.0,-339.0,-3341.0,788.0
2495,349.0,-900.0,-357.0,-456.0,-3116.0,859.0
2496,351.0,-903.0,-334.0,-563.0,-2894.0,913.0
2497,320.0,-915.0,-303.0,-670.0,-2687.0,935.0
2498,305.0,-909.0,-270.0,-760.0,-2518.0,942.0
2499,264.0,-892.0,-231.0,-853.0,-2365.0,943.0
2500,430.0,-1353.0,675.0,-732.0,-2289.0,889.0
2501,526.0,-1277.0,735.0,-496.0,-2139.0,938.0
2502,599.0,-1204.0,783.0,-301.0,-1966.0,966.0
2503,653.0,-1178.0,810.0,-163.0,-1796.0,920.0
2504,649.0,-1092.0,834.0,3.0,-1622.0,856.0
2505,598.0,-984.0,859.0,127.0,-1459.0,860.0
2506,660.0,-959.0,793.0,174.0,-1370.0,916.0
2507,701.0,-813.0,743.0,255.0,-1274.0,847.0
2508,750.0,-709.0,690.0,235.0,-1215.0,605.0
2509,649.0,-677.0,662.0,138.0,-1192.0,268.0
2510,606.0,-702.0,621.0,36.0,-1303.0,-27.0
2511,-21.0,-988.0,262.0,1140.0,306.0,545.0
2512,-8.0,-1044.0,228.0,10.0,-24.0,-141.0
2513,-35.0,-1014.0,245.0,19.0,-26.0,-190.0
2514,-11.0,-1013.0,236.0,15.0,-48.0,-298.0
2515,5.0,-1002.0,225.0,24.0,-57.0,-335.0
2516,60.0,-988.0,246.0,45.0,-85.0,-348.0
2517,92.0,-998.0,223.0,54.0,-84.0,-332.0
2518,75.0,-985.0,238.0,78.0,-67.0,-297.0
2519,33.0,-992.0,232.0,85.0,-61.0,-279.0
2520,52.0,-976.0,245.0,102.0,-85.0,-277.0
2521,60.0,-977.0,238.0,108.0,-96.0,-271.0
2522,70.0,-967.0,246.0,118.0,-103.0,-257.0
2523,72.0,-965.0,249.0,121.0,-112.0,-238.0
2524,79.0,-950.0,257.0,123.0,-121.0,-220.0
2525,89.0,-949.0,260.0,112.0,-123.0,-203.0
2526,130.0,-936.0,254.0,-35.0,68.0,-81.0
2527,133.0,-965.0,255.0,-66.0,77.0,-50.0
2528,115.0,-956.0,248.0,24.0,128.0,94.0
2529,89.0,-938.0,258.0,17.0,127.0,108.0
2530,67.0,-940.0,267.0,3.0,120.0,107.0
2531,87.0,-939.0,259.0,-16.0,105.0,92.0
2532,101.0,-944.0,255.0,-30.0,101.0,90.0
2533,112.0,-938.0,253.0,-40.0,101.0,97.0
2534,99.0,-934.0,253.0,-52.0,108.0,107.0
2535,121.0,-943.0,235.0,-96.0,54.0,-113.0
2536,124.0,-957.0,227.0,-85.0,67.0,-83.0
2537,115.0,-964.0,230.0,-70.0,78.0,-53.0
2538,94.0,-966.0,240.0,-58.0,86.0,-35.0
2539,114.0,-963.0,239.0,-53.0,84.0,-28.0
2540,120.0,-966.0,231.0,-50.0,94.0,-10.0
2541,96.0,-979.0,229.0,-42.0,108.0,13.0
2542,81.0,-985.0,231.0,-32.0,110.0,21.0
2543,66.0,-979.0,239.0,-23.0,103.0,18.0
2544,99.0,-979.0,250.0,76.0,81.0,75.0
2545,87.0,-999.0,240.0,74.0,88.0,88.0
2546,92.0,-1007.0,244.0,88.0,88.0,98.0
2547,94.0,-1035.0,237.0,98.0,90.0,110.0
2548,108.0,-1060.0,229.0,117.0,91.0,127.0
2549,85.0,-1083.0,233.0,146.0,104.0,152.0
2550,74.0,-1139.0,239.0,174.0,99.0,164.0
2551,90.0,-1199.0,246.0,217.0,81.0,174.0
2552,99.0,-1244.0,264.0,271.0,61.0,198.0
2553,78.0,-1317.0,282.0,313.0,30.0,231.0
2554,69.0,-1423.0,295.0,398.0,12.0,259.0
2555,63.0,-1549.0,314.0,563.0,8.0,293.0
2556,46.0,-1735.0,296.0,1184.0,20.0,385.0
2557,4.0,-1671.0,188.0,1667.0,48.0,5.0
2558,90.0,-1043.0,-586.0,-3051.0,-452.0,523.0
2559,78.0,-1155.0,-478.0,-3212.0,-478.0,507.0
2560,15.0,-1269.0,-376.0,-3348.0,-526.0,501.0
2561,-36.0,-1387.0,-278.0,-3461.0,-626.0,525.0
2562,-32.0,-1511.0,-191.0,-3537.0,-775.0,546.0
2563,47.0,-1673.0,-115.0,-3569.0,-936.0,552.0
2564,116.0,-1751.0,-20.0,-3489.0,-1049.0,541.0
2565,162.0,-1751.0,72.0,-3364.0,-1116.0,521.0
2566,255.0,-1765.0,132.0,-3250.0,-1166.0,513.0
2567,406.0,-1754.0,151.0,-3117.0,-1175.0,514.0
2568,475.0,-1736.0,186.0,-2978.0,-1105.0,485.0
2569,429.0,-1648.0,333.0,-2713.0,-928.0,289.0
2570,156.0,-835.0,-77.0,100.0,-348.0,-9.0
2571,185.0,-852.0,-94.0,96.0,-278.0,-43.0
2572,192.0,-869.0,-86.0,105.0,-191.0,-91.0
2573,193.0,-873.0,-95.0,127.0,-94.0,-131.0
2574,170.0,-851.0,-82.0,150.0,2.0,-161.0
2575,130.0,-830.0,-51.0,149.0,84.0,-190.0
2576,94.0,-888.0,-29.0,126.0,145.0,-199.0
2577,65.0,-923.0,1.0,152.0,182.0,-202.0
2578,-12.0,-1020.0,37.0,219.0,198.0,-204.0
2579,-18.0,-903.0,137.0,341.0,149.0,-166.0
2580,-189.0,-1290.0,164.0,425.0,94.0,-85.0
2581,-326.0,-875.0,263.0,906.0,-105.0,126.0
2582,-333.0,-842.0,214.0,850.0,-323.0,175.0
2583,-259.0,-835.0,74.0,664.0,-473.0,139.0
2584,-266.0,-923.0,-138.0,482.0,-501.0,106.0
2585,5.0,-1003.0,-54.0,1015.0,-279.0,-170.0
2586,23.0,-989.0,-23.0,1069.0,-363.0,-128.0
2587,50.0,-994.0,-18.0,1096.0,-404.0,-92.0
2588,35.0,-1018.0,-25.0,1109.0,-394.0,-64.0
2589,-6.0,-1019.0,-34.0,1132.0,-366.0,-63.0
2590,-35.0,-1022.0,-55.0,1160.0,-358.0,-80.0
2591,-38.0,-1041.0,-113.0,1194.0,-369.0,-95.0
2592,6.0,-1061.0,-126.0,1251.0,-383.0,-90.0
2593,-55.0,-977.0,30.0,1306.0,-307.0,-77.0
2594,-19.0,-991.0,213.0,211.0,266.0,-584.0
2595,-28.0,-990.0,200.0,184.0,316.0,-691.0
2596,26.0,-978.0,188.0,165.0,329.0,-772.0
2597,38.0,-962.0,184.0,140.0,331.0,-789.0
2598,80.0,-1012.0,127.0,88.0,272.0,-732.0
2599,168.0,-956.0,174.0,100.0,136.0,-606.0
2600,194.0,-955.0,189.0,97.0,82.0,-451.0
2601,149.0,-990.0,180.0,87.0,95.0,-335.0
2602,103.0,-984.0,182.0,110.0,92.0,-271.0
2603,102.0,-947.0,214.0,136.0,76.0,-236.0
2604,104.0,-972.0,185.0,116.0,68.0,-206.0
2605,118.0,-966.0,197.0,110.0,46.0,-169.0
2606,84.0,-971.0,201.0,99.0,45.0,-139.0
2607,92.0,-969.0,206.0,91.0,41.0,-143.0
2608,88.0,-966.0,224.0,82.0,49.0,-152.0
2609,120.0,-967.0,221.0,56.0,55.0,-28.0
2610,99.0,-998.0,240.0,45.0,137.0,-43.0
2611,137.0,-1002.0,230.0,51.0,144.0,-58.0
2612,136.0,-989.0,227.0,66.0,164.0,-46.0
2613,82.0,-992.0,229.0,76.0,182.0,-34.0
2614,105.0,-989.0,220.0,83.0,165.0,-42.0
2615,95.0,-985.0,234.0,94.0,160.0,-43.0
2616,104.0,-974.0,232.0,100.0,164.0,-49.0
2617,105.0,-959.0,238.0,108.0,170.0,-50.0
2618,89.0,-937.0,253.0,115.0,171.0,-45.0
2619,122.0,-937.0,259.0,95.0,154.0,-43.0
2620,124.0,-943.0,254.0,93.0,181.0,-33.0
2621,46.0,-971.0,322.0,657.0,87.0,-47.0
2622,47.0,-960.0,327.0,662.0,75.0,-53.0
2623,24.0,-988.0,325.0,662.0,61.0,-47.0
2624,11.0,-1002.0,336.0,682.0,33.0,-42.0
2625,24.0,-1038.0,342.0,704.0,0.0,-32.0
2626,18.0,-1060.0,358.0,745.0,-21.0,-14.0
2627,-8.0,-1119.0,375.0,783.0,-36.0,7.0
2628,508.0,-1196.0,356.0,1586.0,114.0,-408.0
2629,-19.0,-912.0,379.0,2245.0,811.0,-1275.0
2630,-67.0,-739.0,326.0,2167.0,724.0,-1290.0
2631,-2.0,-434.0,216.0,2018.0,580.0,-1329.0
2632,-63.0,-19.0,106.0,1685.0,599.0,-1289.0
2633,-227.0,68.0,103.0,995.0,689.0,-1064.0
2634,-502.0,-524.0,-247.0,136.0,747.0,-609.0
2635,-532.0,-664.0,-246.0,-219.0,568.0,34.0
2636,178.0,-812.0,-365.0,-370.0,55.0,463.0
2637,-7.0,-538.0,-312.0,-195.0,441.0,253.0
2638,-89.0,-281.0,-301.0,-269.0,589.0,-6.0
2639,-235.0,-318.0,-320.0,-590.0,698.0,76.0
2640,115.0,-1081.0,69.0,-3143.0,-727.0,799.0
2641,433.0,-1536.0,464.0,-2823.0,-270.0,385.0
2642,405.0,-1555.0,467.0,-2757.0,-146.0,352.0
2643,377.0,-1482.0,467.0,-2654.0,-42.0,304.0
2644,367.0,-1415.0,461.0,-2603.0,35.0,272.0
2645,376.0,-1467.0,451.0,-2601.0,91.0,264.0
2646,370.0,-1486.0,467.0,-2523.0,158.0,217.0
2647,337.0,-1477.0,487.0,-2403.0,236.0,133.0
2648,264.0,-1434.0,517.0,-2270.0,310.0,59.0
2649,161.0,-1408.0,538.0,-2156.0,363.0,14.0
2650,41.0,-1373.0,558.0,-2030.0,382.0,-4.0
2651,-37.0,-1309.0,560.0,-1895.0,356.0,-6.0
2652,78.0,-947.0,288.0,-67.0,-713.0,56.0
2653,14.0,-921.0,226.0,1.0,-755.0,-4.0
2654,31.0,-915.0,167.0,48.0,-838.0,-10.0
2655,73.0,-892.0,123.0,89.0,-893.0,-8.0
2656,125.0,-901.0,86.0,109.0,-901.0,-14.0
2657,182.0,-881.0,31.0,138.0,-849.0,2.0
2658,232.0,-800.0,-9.0,152.0,-729.0,26.0
2659,333.0,-829.0,-75.0,74.0,-552.0,71.0
2660,342.0,-832.0,-106.0,22.0,-275.0,104.0
2661,318.0,-849.0,-112.0,-18.0,17.0,52.0
2662,193.0,-893.0,-80.0,-34.0,290.0,-47.0
2663,-157.0,-1701.0,-992.0,1259.0,8.0,-259.0
2664,25.0,-971.0,-50.0,776.0,108.0,-295.0
2665,62.0,-1011.0,-31.0,720.0,-139.0,-202.0
2666,55.0,-991.0,6.0,764.0,-58.0,-229.0
2667,52.0,-990.0,43.0,771.0,13.0,-251.0
2668,35.0,-1003.0,29.0,763.0,89.0,-278.0
2669,38.0,-1007.0,24.0,775.0,133.0,-305.0
2670,31.0,-1006.0,41.0,798.0,150.0,-320.0
2671,16.0,-993.0,70.0,809.0,149.0,-331.0
2672,40.0,-969.0,123.0,801.0,118.0,-332.0
2673,102.0,-1018.0,177.0,367.0,166.0,-312.0
2674,127.0,-924.0,260.0,414.0,176.0,-319.0
2675,56.0,-925.0,271.0,369.0,231.0,-321.0
2676,129.0,-947.0,240.0,307.0,207.0,-324.0
2677,82.0,-937.0,235.0,279.0,207.0,-290.0
2678,116.0,-946.0,232.0,248.0,179.0,-263.0
2679,118.0,-952.0,223.0,222.0,152.0,-222.0
2680,125.0,-956.0,217.0,205.0,121.0,-176.0
2681,135.0,-932.0,238.0,197.0,90.0,-126.0
2682,136.0,-925.0,249.0,182.0,78.0,-79.0
2683,115.0,-916.0,255.0,166.0,78.0,-45.0
2684,98.0,-908.0,262.0,141.0,82.0,-30.0
2685,109.0,-928.0,253.0,109.0,81.0,-28.0
2686,120.0,-962.0,240.0,89.0,94.0,-29.0
2687,114.0,-954.0,250.0,87.0,107.0,-29.0
2688,136.0,-989.0,246.0,3.0,115.0,-51.0
2689,97.0,-988.0,242.0,16.0,134.0,-42.0
2690,91.0,-959.0,255.0,37.0,123.0,-44.0
2691,86.0,-988.0,251.0,39.0,113.0,-51.0
2692,148.0,-974.0,246.0,80.0,112.0,-41.0
2693,108.0,-971.0,253.0,88.0,142.0,-27.0
2694,119.0,-963.0,254.0,98.0,137.0,-22.0
2695,123.0,-967.0,249.0,103.0,141.0,-15.0
2696,139.0,-966.0,243.0,111.0,147.0,-3.0
2697,119.0,-941.0,258.0,126.0,158.0,21.0
2698,86.0,-932.0,267.0,127.0,165.0,34.0
2699,97.0,-938.0,267.0,119.0,152.0,34.0
2700,128.0,-952.0,267.0,115.0,143.0,40.0
2701,64.0,-1006.0,293.0,170.0,212.0,40.0
2702,62.0,-1200.0,348.0,649.0,109.0,-5.0
2703,116.0,-1201.0,353.0,739.0,88.0,-20.0
2704,128.0,-1271.0,362.0,823.0,95.0,-33.0
2705,100.0,-1279.0,370.0,950.0,93.0,-69.0
2706,115.0,-1306.0,385.0,1035.0,80.0,-128.0
2707,98.0,-1404.0,368.0,1107.0,106.0,-114.0
2708,142.0,-1347.0,381.0,1233.0,99.0,-157.0
2709,153.0,-1409.0,377.0,1317.0,119.0,-232.0
2710,78.0,-935.0,603.0,1894.0,746.0,-856.0
2711,81.0,-918.0,572.0,1869.0,629.0,-836.0
2712,104.0,-840.0,501.0,1848.0,559.0,-815.0
2713,-34.0,-737.0,458.0,1779.0,614.0,-746.0
2714,-104.0,-607.0,429.0,1647.0,554.0,-650.0
2715,-56.0,-497.0,341.0,1439.0,421.0,-554.0
2716,-44.0,-441.0,257.0,1156.0,369.0,-419.0
2717,-105.0,-447.0,157.0,821.0,362.0,-245.0
2718,198.0,-549.0,-162.0,483.0,250.0,-88.0
2719,195.0,-298.0,-324.0,229.0,439.0,-34.0
2720,-7.0,-611.0,-271.0,-298.0,762.0,103.0
2721,113.0,-862.0,43.0,-2710.0,253.0,742.0
2722,19.0,-947.0,107.0,-2851.0,370.0,760.0
2723,-110.0,-1067.0,188.0,-2955.0,392.0,768.0
2724,-190.0,-1183.0,266.0,-2988.0,280.0,761.0
2725,-106.0,-1305.0,385.0,-2888.0,-201.0,618.0
2726,68.0,-1346.0,425.0,-2822.0,-446.0,530.0
2727,260.0,-1361.0,448.0,-2751.0,-591.0,465.0
2728,410.0,-1378.0,471.0,-2696.0,-597.0,408.0
2729,478.0,-1401.0,498.0,-2646.0,-493.0,357.0
2730,466.0,-1419.0,524.0,-2584.0,-342.0,302.0
2731,422.0,-1402.0,541.0,-2502.0,-204.0,243.0
2732,314.0,-1378.0,552.0,-2422.0,-101.0,169.0
2733,110.0,-1289.0,513.0,-2158.0,-193.0,-41.0
2734,57.0,-1447.0,482.0,-2080.0,-126.0,-31.0
2735,125.0,-917.0,528.0,-1854.0,-85.0,-13.0
2736,26.0,-1436.0,410.0,-2077.0,27.0,-3.0
2737,28.0,-1061.0,465.0,-1884.0,40.0,5.0
2738,-83.0,-1381.0,448.0,-1995.0,119.0,23.0
2739,-93.0,-1209.0,473.0,-1766.0,90.0,55.0
2740,-34.0,-1140.0,517.0,-1101.0,-272.0,-67.0
2741,3.0,-1074.0,477.0,-861.0,-303.0,-42.0
2742,38.0,-1004.0,446.0,-766.0,-283.0,-35.0
2743,108.0,-996.0,390.0,-725.0,-251.0,-21.0
2744,169.0,-1032.0,348.0,-673.0,-189.0,-21.0
2745,181.0,-1020.0,352.0,-574.0,-91.0,-52.0
2746,146.0,-993.0,365.0,-476.0,4.0,-89.0
2747,108.0,-999.0,341.0,-396.0,75.0,-102.0
2748,99.0,-988.0,322.0,-303.0,117.0,-94.0
2749,72.0,-967.0,310.0,-211.0,141.0,-115.0
2750,-218.0,-773.0,-92.0,2294.0,-207.0,-339.0
2751,102.0,-950.0,230.0,30.0,72.0,-162.0
2752,110.0,-948.0,225.0,22.0,64.0,-135.0
2753,103.0,-958.0,221.0,16.0,63.0,-110.0
2754,80.0,-960.0,222.0,10.0,67.0,-99.0
2755,84.0,-960.0,227.0,9.0,58.0,-100.0
2756,87.0,-956.0,230.0,6.0,54.0,-98.0
2757,107.0,-966.0,224.0,0.0,54.0,-99.0
2758,83.0,-969.0,225.0,-1.0,62.0,-92.0
2759,78.0,-970.0,224.0,3.0,62.0,-95.0
2760,89.0,-978.0,217.0,8.0,54.0,-99.0
2761,100.0,-980.0,219.0,18.0,44.0,-92.0
2762,83.0,-961.0,237.0,42.0,54.0,9.0
2763,90.0,-976.0,227.0,38.0,51.0,5.0
2764,92.0,-972.0,235.0,45.0,50.0,1.0
2765,90.0,-980.0,226.0,45.0,50.0,0.0
2766,86.0,-969.0,235.0,51.0,49.0,-3.0
2767,98.0,-957.0,246.0,54.0,41.0,-6.0
2768,96.0,-960.0,243.0,46.0,44.0,-2.0
2769,100.0,-958.0,242.0,42.0,47.0,1.0
2770,98.0,-956.0,243.0,41.0,50.0,8.0
2771,98.0,-965.0,241.0,40.0,55.0,12.0
2772,98.0,-967.0,242.0,39.0,59.0,16.0
2773,93.0,-969.0,234.0,37.0,62.0,20.0
2774,96.0,-971.0,225.0,43.0,61.0,26.0
2775,90.0,-975.0,239.0,55.0,57.0,34.0
2776,64.0,-965.0,254.0,158.0,155.0,6.0
2777,98.0,-957.0,276.0,160.0,131.0,14.0
2778,81.0,-963.0,263.0,141.0,136.0,28.0
2779,79.0,-936.0,256.0,137.0,136.0,39.0
2780,79.0,-901.0,272.0,136.0,124.0,55.0
2781,65.0,-881.0,285.0,117.0,121.0,69.0
2782,60.0,-882.0,294.0,84.0,116.0,74.0
2783,58.0,-894.0,290.0,44.0,111.0,76.0
2784,46.0,-916.0,281.0,-6.0,91.0,67.0
2785,64.0,-947.0,279.0,-21.0,73.0,62.0
2786,76.0,-990.0,260.0,-24.0,67.0,67.0
2787,59.0,-950.0,273.0,-32.0,93.0,63.0
2788,39.0,-967.0,265.0,-30.0,92.0,55.0
2789,37.0,-966.0,270.0,-25.0,85.0,48.0
2790,37.0,-976.0,262.0,-24.0,83.0,39.0
2791,32.0,-976.0,265.0,-16.0,82.0,32.0
2792,36.0,-978.0,266.0,-10.0,75.0,24.0
2793,41.0,-972.0,261.0,0.0,71.0,19.0
2794,44.0,-957.0,266.0,11.0,67.0,19.0
2795,43.0,-958.0,270.0,14.0,65.0,20.0
2796,54.0,-960.0,268.0,14.0,61.0,22.0
2797,62.0,-954.0,264.0,16.0,63.0,31.0
2798,65.0,-955.0,265.0,16.0,67.0,42.0
2799,39.0,-957.0,272.0,14.0,65.0,-43.0
2800,36.0,-957.0,278.0,6.0,74.0,-14.0
2801,38.0,-960.0,275.0,4.0,73.0,-11.0
2802,40.0,-965.0,273.0,5.0,74.0,-8.0
2803,38.0,-960.0,275.0,9.0,73.0,-2.0
2804,29.0,-954.0,280.0,13.0,74.0,1.0
2805,36.0,-959.0,276.0,6.0,72.0,2.0
2806,29.0,-957.0,284.0,5.0,72.0,-2.0
2807,37.0,-958.0,275.0,3.0,75.0,-4.0
2808,51.0,-960.0,274.0,3.0,75.0,1.0
2809,26.0,-959.0,279.0,7.0,83.0,11.0
2810,29.0,-963.0,277.0,6.0,82.0,5.0