sequence,AccelerometerX,AccelerometerY,AccelerometerZ,GyroscopeX,GyroscopeY,GyroscopeZ
59,-6.0,-909.0,-111.0,-147.0,1378.0,-263.0
60,73.0,-959.0,-6.0,-801.0,1778.0,-288.0
61,217.0,-939.0,332.0,-480.0,1429.0,-175.0
62,231.0,-962.0,345.0,-463.0,1479.0,-223.0
63,240.0,-965.0,348.0,-412.0,1547.0,-225.0
64,242.0,-969.0,352.0,-346.0,1628.0,-211.0
65,207.0,-1045.0,353.0,-263.0,1724.0,-224.0
66,167.0,-1000.0,356.0,-107.0,1796.0,-239.0
67,124.0,-1001.0,358.0,7.0,1846.0,-231.0
68,69.0,-1057.0,377.0,124.0,1857.0,-219.0
69,26.0,-1034.0,385.0,301.0,1792.0,-206.0
70,-2.0,-915.0,376.0,438.0,1677.0,-200.0
71,-25.0,-832.0,375.0,433.0,1529.0,-195.0
72,13.0,-826.0,341.0,349.0,1344.0,-183.0
73,-4.0,-861.0,278.0,266.0,1204.0,-163.0
74,-40.0,-956.0,196.0,202.0,1071.0,-147.0
75,-45.0,-1014.0,102.0,193.0,921.0,-165.0
76,161.0,-962.0,171.0,507.0,-104.0,-147.0
77,191.0,-956.0,214.0,194.0,78.0,-131.0
78,199.0,-955.0,221.0,175.0,89.0,-126.0
79,195.0,-974.0,211.0,151.0,101.0,-113.0
80,188.0,-964.0,215.0,141.0,108.0,-113.0
81,165.0,-957.0,223.0,129.0,118.0,-117.0
82,174.0,-952.0,231.0,113.0,119.0,-137.0
83,157.0,-975.0,227.0,92.0,135.0,-160.0
84,169.0,-983.0,217.0,80.0,139.0,-197.0
85,192.0,-990.0,213.0,79.0,141.0,-219.0
86,212.0,-979.0,208.0,85.0,144.0,-217.0
87,184.0,-959.0,224.0,-24.0,131.0,-65.0
88,195.0,-940.0,230.0,-28.0,123.0,-59.0
89,201.0,-948.0,229.0,-28.0,124.0,-45.0
90,225.0,-951.0,220.0,-23.0,119.0,-27.0
91,233.0,-949.0,211.0,-13.0,125.0,4.0
92,194.0,-961.0,200.0,-2.0,147.0,31.0
93,208.0,-932.0,232.0,19.0,134.0,39.0
94,209.0,-943.0,227.0,15.0,133.0,53.0
95,206.0,-947.0,226.0,8.0,140.0,61.0
96,203.0,-940.0,229.0,5.0,147.0,67.0
97,161.0,-979.0,202.0,61.0,152.0,70.0
98,83.0,-897.0,310.0,295.0,304.0,115.0
99,69.0,-891.0,314.0,268.0,292.0,110.0
100,61.0,-913.0,316.0,234.0,273.0,103.0
101,52.0,-964.0,316.0,211.0,249.0,90.0
102,69.0,-1016.0,308.0,210.0,216.0,65.0
103,94.0,-1018.0,297.0,242.0,176.0,45.0
104,103.0,-1050.0,303.0,280.0,145.0,37.0
105,72.0,-1032.0,334.0,352.0,133.0,23.0
106,64.0,-1066.0,319.0,395.0,110.0,4.0
107,44.0,-1062.0,338.0,472.0,90.0,-12.0
108,32.0,-1074.0,347.0,540.0,50.0,-28.0
109,77.0,-1023.0,349.0,655.0,-26.0,-23.0
110,493.0,-1049.0,263.0,1736.0,571.0,-323.0
111,420.0,-955.0,338.0,1694.0,671.0,-333.0
112,314.0,-893.0,458.0,1650.0,705.0,-297.0
113,293.0,-731.0,544.0,1640.0,614.0,-276.0
114,227.0,-641.0,594.0,1534.0,548.0,-310.0
115,124.0,-547.0,545.0,1397.0,470.0,-290.0
116,146.0,-530.0,388.0,1226.0,320.0,-146.0
117,366.0,-412.0,193.0,1029.0,219.0,82.0
118,266.0,-295.0,-120.0,740.0,416.0,301.0
119,-234.0,-282.0,-171.0,287.0,626.0,458.0
120,-55.0,-677.0,-146.0,-228.0,238.0,615.0
121,88.0,-662.0,-136.0,-268.0,-94.0,598.0
122,-3.0,-481.0,-107.0,-263.0,-164.0,488.0
123,45.0,-572.0,-168.0,-458.0,-341.0,467.0
124,40.0,-462.0,-195.0,-518.0,-491.0,449.0
125,188.0,-869.0,304.0,-2470.0,-1907.0,760.0
126,871.0,-1490.0,1600.0,-1362.0,-412.0,297.0
127,-28.0,-1200.0,323.0,0.0,153.0,-194.0
128,126.0,-1246.0,230.0,-65.0,116.0,-301.0
129,105.0,-1140.0,255.0,-39.0,92.0,-312.0
130,61.0,-1060.0,282.0,-51.0,63.0,-318.0
131,89.0,-1012.0,275.0,-87.0,30.0,-334.0
132,154.0,-992.0,269.0,-108.0,16.0,-322.0
133,195.0,-981.0,225.0,-106.0,34.0,-267.0
134,189.0,-943.0,223.0,-78.0,80.0,-190.0
135,170.0,-925.0,242.0,-64.0,126.0,-125.0
136,134.0,-913.0,247.0,-67.0,176.0,-78.0
137,91.0,-899.0,263.0,-89.0,230.0,-71.0
138,14.0,-924.0,274.0,-129.0,273.0,-106.0
139,-11.0,-947.0,287.0,-164.0,267.0,-164.0
140,-7.0,-977.0,278.0,-193.0,234.0,-221.0
141,31.0,-976.0,256.0,-204.0,196.0,-271.0
142,153.0,-954.0,223.0,-101.0,112.0,-260.0
143,113.0,-981.0,219.0,-5.0,76.0,-109.0
144,128.0,-969.0,230.0,83.0,51.0,-11.0
145,130.0,-967.0,233.0,82.0,51.0,-18.0
146,141.0,-964.0,221.0,81.0,52.0,-21.0
147,138.0,-952.0,229.0,84.0,58.0,-21.0
148,137.0,-948.0,234.0,81.0,63.0,-21.0
149,132.0,-955.0,239.0,73.0,67.0,-20.0
150,137.0,-956.0,241.0,68.0,65.0,-18.0
151,126.0,-959.0,242.0,67.0,65.0,-13.0
152,127.0,-960.0,240.0,67.0,62.0,-12.0
153,121.0,-962.0,237.0,66.0,57.0,-12.0
154,129.0,-951.0,236.0,65.0,50.0,-18.0
155,140.0,-943.0,253.0,45.0,71.0,-50.0
156,139.0,-949.0,247.0,5.0,50.0,-19.0
157,130.0,-949.0,252.0,4.0,55.0,-22.0
158,128.0,-952.0,253.0,0.0,56.0,-25.0
159,138.0,-956.0,250.0,-3.0,54.0,-26.0
160,140.0,-960.0,246.0,-6.0,54.0,-23.0
161,146.0,-954.0,246.0,-4.0,52.0,-18.0
162,133.0,-943.0,254.0,-2.0,53.0,-10.0
163,117.0,-947.0,258.0,-7.0,53.0,-9.0
164,134.0,-942.0,248.0,-60.0,98.0,38.0
165,128.0,-935.0,253.0,-67.0,104.0,37.0
166,123.0,-932.0,251.0,-76.0,106.0,38.0
167,119.0,-931.0,248.0,-82.0,107.0,37.0
168,125.0,-930.0,241.0,-85.0,106.0,35.0
169,128.0,-921.0,244.0,-85.0,107.0,37.0
170,123.0,-924.0,245.0,-86.0,115.0,42.0
171,121.0,-930.0,250.0,-89.0,121.0,47.0
172,117.0,-950.0,240.0,-90.0,124.0,54.0
173,112.0,-965.0,220.0,-75.0,121.0,57.0
174,101.0,-951.0,238.0,-49.0,114.0,52.0
175,108.0,-1025.0,223.0,1.0,25.0,2.0
176,130.0,-1023.0,228.0,19.0,9.0,-20.0
177,165.0,-1024.0,223.0,28.0,16.0,-30.0
178,144.0,-1031.0,225.0,29.0,53.0,-28.0
179,118.0,-1063.0,184.0,39.0,61.0,-42.0
180,122.0,-1061.0,211.0,90.0,37.0,-68.0
181,146.0,-1047.0,250.0,124.0,22.0,-77.0
182,135.0,-1066.0,239.0,113.0,37.0,-81.0
183,88.0,-1104.0,232.0,124.0,37.0,-100.0
184,62.0,-1171.0,223.0,153.0,-1.0,-151.0
185,86.0,-1233.0,211.0,217.0,-55.0,-219.0
186,-229.0,-733.0,28.0,2801.0,400.0,-1371.0
187,-208.0,-336.0,57.0,2576.0,209.0,-1046.0
188,324.0,258.0,-250.0,2188.0,-228.0,-681.0
189,669.0,190.0,-672.0,1120.0,-174.0,-480.0
190,696.0,-440.0,-817.0,112.0,550.0,-314.0
191,382.0,-45.0,-759.0,-151.0,1277.0,70.0
192,-138.0,-310.0,-769.0,-754.0,1920.0,337.0
193,-380.0,-312.0,-770.0,-1104.0,2069.0,633.0
194,-663.0,-246.0,-715.0,-1398.0,2043.0,937.0
195,-763.0,-370.0,-670.0,-1754.0,1752.0,1168.0
196,-714.0,-430.0,-605.0,-1976.0,1310.0,1309.0
197,153.0,-1563.0,285.0,-3089.0,-396.0,843.0
198,-113.0,-1015.0,98.0,-129.0,-121.0,-49.0
199,-66.0,-974.0,65.0,-14.0,-284.0,-127.0
200,-40.0,-969.0,81.0,66.0,-375.0,-188.0
201,37.0,-968.0,56.0,141.0,-408.0,-203.0
202,128.0,-918.0,12.0,218.0,-341.0,-185.0
203,181.0,-904.0,-7.0,242.0,-172.0,-168.0
204,137.0,-931.0,19.0,250.0,58.0,-148.0
205,1.0,-963.0,70.0,280.0,271.0,-108.0
206,-111.0,-986.0,111.0,333.0,386.0,-54.0
207,-196.0,-1004.0,143.0,409.0,406.0,-11.0
208,-307.0,-648.0,108.0,478.0,311.0,98.0
209,-148.0,-956.0,-62.0,1459.0,596.0,-500.0
210,255.0,-968.0,5.0,1322.0,-144.0,143.0
211,265.0,-969.0,48.0,1252.0,-187.0,340.0
212,236.0,-924.0,75.0,1226.0,-178.0,510.0
213,171.0,-925.0,75.0,1176.0,-106.0,605.0
214,-3.0,-790.0,298.0,1108.0,-16.0,573.0
215,-97.0,-705.0,494.0,860.0,40.0,371.0
216,-138.0,-826.0,444.0,499.0,108.0,77.0
217,-71.0,-966.0,267.0,271.0,107.0,-172.0
218,3.0,-996.0,221.0,201.0,71.0,-321.0
219,26.0,-955.0,226.0,170.0,59.0,-409.0
220,107.0,-965.0,181.0,141.0,48.0,-464.0
221,0.0,-956.0,227.0,179.0,185.0,-28.0
222,167.0,-989.0,179.0,46.0,99.0,-93.0
223,135.0,-997.0,190.0,65.0,107.0,-65.0
224,129.0,-973.0,210.0,81.0,97.0,-54.0
225,120.0,-956.0,231.0,80.0,89.0,-48.0
226,97.0,-955.0,232.0,64.0,90.0,-48.0
227,100.0,-976.0,222.0,45.0,89.0,-63.0
228,125.0,-1004.0,188.0,39.0,83.0,-81.0
229,160.0,-981.0,199.0,61.0,62.0,-73.0
230,168.0,-963.0,210.0,76.0,56.0,-44.0
231,152.0,-949.0,223.0,81.0,57.0,-10.0
232,135.0,-952.0,228.0,75.0,61.0,5.0
233,136.0,-970.0,206.0,54.0,86.0,-175.0
234,139.0,-957.0,223.0,71.0,77.0,-168.0
235,170.0,-948.0,223.0,75.0,61.0,-150.0
236,174.0,-954.0,228.0,77.0,55.0,-116.0
237,155.0,-966.0,221.0,74.0,64.0,-89.0
238,145.0,-955.0,230.0,78.0,63.0,-75.0
239,123.0,-946.0,248.0,77.0,61.0,-67.0
240,122.0,-963.0,238.0,57.0,56.0,-77.0
241,130.0,-963.0,228.0,44.0,47.0,-89.0
242,135.0,-940.0,241.0,37.0,35.0,-91.0
243,154.0,-963.0,233.0,-36.0,92.0,-12.0
244,150.0,-977.0,222.0,84.0,148.0,10.0
245,167.0,-998.0,235.0,98.0,204.0,-48.0
246,176.0,-990.0,236.0,117.0,211.0,-33.0
247,145.0,-981.0,244.0,133.0,225.0,-11.0
248,134.0,-1002.0,240.0,138.0,228.0,2.0
249,166.0,-1013.0,228.0,148.0,207.0,13.0
250,204.0,-1010.0,233.0,172.0,186.0,49.0
251,207.0,-1007.0,244.0,192.0,188.0,103.0
252,182.0,-988.0,257.0,206.0,200.0,148.0
253,148.0,-986.0,268.0,215.0,225.0,169.0
254,133.0,-988.0,272.0,216.0,234.0,167.0
255,116.0,-1045.0,269.0,220.0,246.0,151.0
256,208.0,-1023.0,331.0,727.0,78.0,-350.0
257,60.0,-829.0,427.0,781.0,27.0,-504.0
258,202.0,-767.0,435.0,645.0,-43.0,-435.0
259,222.0,-767.0,434.0,607.0,-36.0,-406.0
260,263.0,-749.0,432.0,583.0,-32.0,-369.0
261,262.0,-751.0,437.0,549.0,0.0,-344.0
262,265.0,-764.0,446.0,518.0,19.0,-319.0
263,269.0,-777.0,437.0,497.0,30.0,-295.0
264,259.0,-772.0,455.0,483.0,49.0,-275.0
265,256.0,-795.0,466.0,458.0,65.0,-254.0
266,252.0,-808.0,470.0,446.0,78.0,-229.0
267,213.0,-830.0,470.0,434.0,98.0,-210.0
268,210.0,-842.0,487.0,431.0,97.0,-196.0
269,166.0,-902.0,538.0,265.0,222.0,-334.0
270,136.0,-851.0,554.0,351.0,192.0,-322.0
271,218.0,-789.0,556.0,412.0,105.0,-272.0
272,191.0,-785.0,557.0,408.0,104.0,-253.0
273,185.0,-761.0,574.0,409.0,83.0,-258.0
274,212.0,-748.0,577.0,409.0,46.0,-243.0
275,204.0,-739.0,571.0,406.0,36.0,-223.0
276,181.0,-729.0,554.0,397.0,28.0,-224.0
277,194.0,-678.0,564.0,391.0,2.0,-217.0
278,181.0,-712.0,587.0,353.0,-4.0,-191.0
279,184.0,-687.0,595.0,355.0,-36.0,-164.0
280,280.0,-697.0,612.0,224.0,-67.0,-302.0
281,292.0,-705.0,633.0,113.0,102.0,-102.0
282,290.0,-709.0,637.0,117.0,84.0,-92.0
283,268.0,-704.0,636.0,129.0,70.0,-86.0
284,265.0,-681.0,642.0,140.0,44.0,-57.0
285,278.0,-667.0,641.0,140.0,11.0,-22.0
286,316.0,-665.0,642.0,130.0,-14.0,-11.0
287,352.0,-630.0,634.0,128.0,-30.0,-6.0
288,378.0,-621.0,628.0,105.0,-27.0,-6.0
289,400.0,-613.0,627.0,77.0,-8.0,-8.0
290,418.0,-615.0,625.0,45.0,16.0,-12.0
291,413.0,-624.0,620.0,14.0,49.0,-17.0
292,312.0,-725.0,635.0,-24.0,122.0,-62.0
293,392.0,-681.0,623.0,-9.0,67.0,-51.0
294,386.0,-691.0,623.0,-16.0,85.0,-55.0
295,376.0,-693.0,622.0,-15.0,102.0,-60.0
296,363.0,-682.0,621.0,-13.0,113.0,-63.0
297,342.0,-689.0,629.0,-19.0,126.0,-66.0
298,328.0,-685.0,633.0,-21.0,131.0,-65.0
299,325.0,-698.0,632.0,-26.0,129.0,-57.0
300,314.0,-699.0,636.0,-25.0,130.0,-62.0
301,316.0,-692.0,638.0,-22.0,123.0,-58.0
302,307.0,-722.0,639.0,-28.0,120.0,-46.0
303,302.0,-704.0,641.0,-10.0,104.0,-26.0
304,456.0,-661.0,614.0,-25.0,179.0,167.0
305,456.0,-653.0,621.0,-32.0,205.0,180.0
306,467.0,-684.0,618.0,-43.0,236.0,186.0
307,430.0,-695.0,623.0,-40.0,284.0,164.0
308,386.0,-707.0,624.0,-32.0,316.0,155.0
309,375.0,-714.0,623.0,-23.0,326.0,156.0
310,350.0,-724.0,621.0,-18.0,346.0,135.0
311,416.0,-1110.0,637.0,859.0,457.0,-347.0
312,406.0,-1138.0,635.0,933.0,497.0,-424.0
313,370.0,-1177.0,658.0,1022.0,531.0,-480.0
314,343.0,-1173.0,686.0,1132.0,522.0,-522.0
315,315.0,-1188.0,729.0,1236.0,496.0,-540.0
316,268.0,-1188.0,762.0,1348.0,465.0,-545.0
317,255.0,-1158.0,775.0,1464.0,409.0,-537.0
318,302.0,-1104.0,758.0,1571.0,351.0,-493.0
319,297.0,-1071.0,744.0,1646.0,375.0,-406.0
320,172.0,-1017.0,740.0,1710.0,442.0,-298.0
321,-217.0,-424.0,-474.0,-2070.0,-13.0,1266.0
322,-171.0,-440.0,-464.0,-2290.0,-43.0,1305.0
323,-212.0,-432.0,-405.0,-2510.0,-28.0,1252.0
324,-190.0,-554.0,-353.0,-2794.0,-99.0,1258.0
325,-96.0,-684.0,-304.0,-2984.0,-182.0,1338.0
326,-68.0,-711.0,-211.0,-3074.0,-184.0,1397.0
327,-5.0,-806.0,-157.0,-3216.0,-193.0,1403.0
328,47.0,-901.0,-102.0,-3333.0,-180.0,1383.0
329,49.0,-1006.0,-24.0,-3418.0,-130.0,1351.0
330,36.0,-1085.0,65.0,-3464.0,-96.0,1345.0
331,37.0,-1175.0,147.0,-3502.0,-83.0,1373.0
332,53.0,-1396.0,326.0,-3543.0,-94.0,1348.0
333,561.0,-834.0,885.0,-1026.0,-231.0,-5.0
334,449.0,-1006.0,977.0,-1091.0,-110.0,-34.0
335,289.0,-1394.0,1098.0,-901.0,-53.0,-67.0
336,148.0,-1302.0,1269.0,-268.0,-95.0,-90.0
337,-1.0,-1303.0,1363.0,341.0,-212.0,-1.0
338,-105.0,-807.0,1430.0,944.0,-417.0,163.0
339,-164.0,-422.0,1312.0,847.0,-529.0,336.0
340,-99.0,-437.0,900.0,231.0,-501.0,482.0
341,-293.0,-669.0,405.0,-312.0,-345.0,494.0
342,-605.0,-1416.0,-329.0,-719.0,-325.0,182.0
343,-508.0,-1823.0,-1033.0,-368.0,-578.0,-277.0
344,-301.0,-1959.0,-1477.0,350.0,-771.0,-588.0
345,-59.0,-1948.0,-1234.0,1527.0,-758.0,-839.0
346,-64.0,-1421.0,-435.0,2523.0,-516.0,-958.0
347,-49.0,-729.0,349.0,2529.0,-382.0,-949.0
348,56.0,-942.0,248.0,262.0,96.0,-78.0
349,81.0,-988.0,156.0,-37.0,101.0,-181.0
350,87.0,-987.0,156.0,-36.0,98.0,-170.0
351,88.0,-977.0,166.0,-29.0,90.0,-147.0
352,98.0,-983.0,158.0,-27.0,81.0,-126.0
353,100.0,-992.0,145.0,-23.0,82.0,-106.0
354,105.0,-977.0,158.0,-7.0,76.0,-81.0
355,105.0,-979.0,158.0,1.0,88.0,-51.0
356,93.0,-982.0,157.0,8.0,98.0,-29.0
357,32.0,-975.0,162.0,16.0,111.0,-8.0
358,36.0,-983.0,172.0,25.0,102.0,-26.0
359,54.0,-990.0,168.0,26.0,91.0,-55.0
360,51.0,-966.0,174.0,156.0,87.0,146.0
361,46.0,-968.0,189.0,-7.0,67.0,37.0
362,44.0,-966.0,186.0,-12.0,65.0,37.0
363,49.0,-963.0,189.0,-16.0,61.0,35.0
364,41.0,-961.0,192.0,-20.0,61.0,35.0
365,35.0,-962.0,194.0,-27.0,58.0,31.0
366,28.0,-965.0,195.0,-36.0,59.0,22.0
367,33.0,-972.0,192.0,-45.0,57.0,7.0
368,37.0,-975.0,186.0,-52.0,57.0,-4.0
369,39.0,-970.0,186.0,-55.0,58.0,-12.0
370,39.0,-969.0,185.0,-58.0,57.0,-17.0
371,46.0,-968.0,185.0,-60.0,56.0,-22.0
372,51.0,-967.0,185.0,-60.0,58.0,-23.0
373,47.0,-977.0,186.0,-64.0,63.0,-22.0
374,53.0,-983.0,176.0,-67.0,66.0,-26.0
375,58.0,-981.0,179.0,-64.0,70.0,-27.0
376,50.0,-998.0,170.0,-60.0,81.0,-30.0
377,41.0,-987.0,173.0,-9.0,78.0,-14.0
378,42.0,-987.0,174.0,-3.0,78.0,-19.0
379,41.0,-989.0,176.0,3.0,78.0,-21.0
380,42.0,-991.0,175.0,6.0,77.0,-25.0
381,39.0,-995.0,174.0,12.0,77.0,-28.0
382,44.0,-996.0,172.0,18.0,74.0,-32.0
383,45.0,-990.0,173.0,24.0,73.0,-33.0
384,40.0,-983.0,175.0,29.0,74.0,-35.0
385,39.0,-980.0,179.0,30.0,73.0,-40.0
386,40.0,-981.0,184.0,29.0,73.0,-46.0
387,46.0,-980.0,181.0,28.0,73.0,-49.0
388,50.0,-976.0,181.0,28.0,75.0,-49.0
389,46.0,-973.0,181.0,28.0,78.0,-47.0
390,26.0,-966.0,186.0,57.0,57.0,-63.0
391,28.0,-997.0,154.0,181.0,7.0,-63.0
392,52.0,-965.0,197.0,177.0,-5.0,-220.0
393,57.0,-949.0,178.0,181.0,7.0,-223.0
394,50.0,-958.0,172.0,186.0,23.0,-223.0
395,98.0,-934.0,247.0,221.0,10.0,-220.0
396,101.0,-934.0,272.0,197.0,21.0,-197.0
397,60.0,-1001.0,215.0,138.0,48.0,-185.0
398,59.0,-1013.0,194.0,142.0,52.0,-199.0
399,96.0,-972.0,230.0,165.0,35.0,-208.0
400,117.0,-965.0,240.0,145.0,32.0,-194.0
401,77.0,-974.0,236.0,108.0,51.0,-173.0
402,60.0,-967.0,237.0,80.0,55.0,-176.0
403,110.0,-947.0,224.0,-51.0,27.0,-107.0
404,115.0,-970.0,203.0,47.0,38.0,-71.0
405,150.0,-964.0,213.0,53.0,28.0,-42.0
406,135.0,-967.0,225.0,54.0,33.0,-8.0
407,125.0,-997.0,193.0,41.0,44.0,13.0
408,115.0,-977.0,210.0,64.0,37.0,28.0
409,113.0,-966.0,221.0,73.0,41.0,27.0
410,112.0,-966.0,215.0,62.0,51.0,18.0
411,107.0,-968.0,215.0,61.0,58.0,16.0
412,104.0,-957.0,227.0,61.0,66.0,7.0
413,101.0,-960.0,217.0,51.0,75.0,-2.0
414,94.0,-959.0,218.0,49.0,81.0,-9.0
415,109.0,-941.0,236.0,37.0,79.0,-12.0
416,99.0,-964.0,237.0,-40.0,147.0,-3.0
417,111.0,-981.0,211.0,-13.0,162.0,-19.0
418,114.0,-998.0,195.0,0.0,165.0,-11.0
419,112.0,-1013.0,186.0,19.0,171.0,-3.0
420,126.0,-1068.0,190.0,51.0,171.0,3.0
421,81.0,-1095.0,135.0,110.0,181.0,7.0
422,43.0,-1028.0,228.0,217.0,151.0,-7.0
423,71.0,-1066.0,191.0,206.0,119.0,-46.0
424,94.0,-1061.0,216.0,232.0,98.0,-76.0
425,129.0,-1086.0,218.0,244.0,85.0,-99.0
426,138.0,-1114.0,208.0,261.0,91.0,-103.0
427,111.0,-1042.0,235.0,393.0,96.0,-146.0
428,152.0,-929.0,289.0,160.0,197.0,-292.0
429,83.0,-915.0,320.0,116.0,168.0,-237.0
430,72.0,-962.0,325.0,100.0,152.0,-213.0
431,82.0,-945.0,315.0,117.0,119.0,-188.0
432,111.0,-942.0,310.0,124.0,88.0,-177.0
433,116.0,-950.0,314.0,128.0,74.0,-171.0
434,150.0,-946.0,312.0,130.0,53.0,-182.0
435,148.0,-945.0,299.0,128.0,58.0,-181.0
436,151.0,-929.0,297.0,134.0,60.0,-175.0
437,118.0,-930.0,312.0,134.0,70.0,-172.0
438,119.0,-918.0,315.0,131.0,60.0,-164.0
439,112.0,-927.0,321.0,123.0,50.0,-153.0
440,181.0,-902.0,318.0,-45.0,145.0,40.0
441,113.0,-943.0,304.0,-167.0,147.0,70.0
442,102.0,-960.0,288.0,-170.0,140.0,56.0
443,112.0,-960.0,284.0,-156.0,123.0,40.0
444,115.0,-951.0,292.0,-142.0,111.0,26.0
445,119.0,-973.0,306.0,-140.0,105.0,17.0
446,107.0,-981.0,295.0,-128.0,100.0,12.0
447,111.0,-1001.0,302.0,-108.0,87.0,0.0
448,105.0,-982.0,297.0,-81.0,76.0,-10.0
449,101.0,-975.0,297.0,-72.0,61.0,-22.0
450,122.0,-966.0,283.0,-68.0,41.0,-35.0
451,151.0,-950.0,279.0,-63.0,29.0,-40.0
452,119.0,-963.0,272.0,-7.0,33.0,-98.0
453,144.0,-956.0,270.0,-4.0,27.0,-108.0
454,161.0,-940.0,279.0,-2.0,28.0,-106.0
455,164.0,-934.0,287.0,-8.0,33.0,-92.0
456,170.0,-937.0,277.0,-20.0,39.0,-76.0
457,163.0,-936.0,277.0,-26.0,50.0,-61.0
458,150.0,-936.0,270.0,-31.0,55.0,-47.0
459,147.0,-934.0,272.0,-32.0,56.0,-41.0
460,150.0,-931.0,278.0,-34.0,55.0,-37.0
461,155.0,-935.0,275.0,-41.0,55.0,-28.0
462,164.0,-931.0,272.0,-44.0,55.0,-16.0
463,136.0,-934.0,272.0,-61.0,74.0,18.0
464,126.0,-939.0,275.0,-64.0,77.0,13.0
465,118.0,-946.0,270.0,-69.0,78.0,2.0
466,134.0,-948.0,266.0,-66.0,72.0,-12.0
467,142.0,-945.0,271.0,-61.0,67.0,-15.0
468,159.0,-942.0,267.0,-63.0,64.0,-9.0
469,158.0,-938.0,270.0,-62.0,67.0,4.0
470,139.0,-942.0,273.0,-64.0,75.0,17.0
471,137.0,-961.0,263.0,-36.0,74.0,47.0
472,148.0,-969.0,251.0,-33.0,73.0,44.0
473,148.0,-964.0,257.0,-23.0,79.0,47.0
474,140.0,-957.0,265.0,-15.0,85.0,52.0
475,136.0,-948.0,265.0,-15.0,87.0,55.0
476,118.0,-942.0,271.0,-17.0,91.0,55.0
477,109.0,-941.0,272.0,-23.0,89.0,46.0
478,112.0,-943.0,274.0,-32.0,84.0,32.0
479,109.0,-977.0,266.0,-38.0,82.0,1.0
480,116.0,-990.0,260.0,-33.0,75.0,-15.0
481,137.0,-991.0,257.0,-8.0,65.0,-31.0
482,118.0,-948.0,266.0,-28.0,75.0,-2.0
483,119.0,-953.0,265.0,-31.0,71.0,-5.0
484,123.0,-958.0,262.0,-31.0,69.0,-9.0
485,128.0,-963.0,255.0,-28.0,66.0,-12.0
486,136.0,-962.0,257.0,-22.0,63.0,-13.0
487,136.0,-963.0,256.0,-16.0,63.0,-10.0
488,133.0,-963.0,259.0,-12.0,64.0,-7.0
489,134.0,-959.0,262.0,-10.0,65.0,-3.0
490,133.0,-959.0,261.0,-10.0,68.0,1.0
491,135.0,-958.0,261.0,-10.0,70.0,5.0
492,135.0,-962.0,256.0,-11.0,74.0,10.0
493,137.0,-960.0,257.0,-10.0,77.0,12.0
494,132.0,-952.0,262.0,-9.0,79.0,15.0
495,127.0,-948.0,261.0,-11.0,83.0,16.0
496,122.0,-945.0,263.0,-14.0,86.0,15.0
497,111.0,-950.0,263.0,-9.0,82.0,-5.0
498,111.0,-968.0,260.0,7.0,69.0,-44.0
499,113.0,-966.0,263.0,14.0,64.0,-51.0
500,122.0,-963.0,262.0,18.0,59.0,-58.0
501,126.0,-957.0,263.0,19.0,57.0,-58.0
502,129.0,-953.0,263.0,18.0,57.0,-56.0
503,134.0,-954.0,259.0,16.0,59.0,-52.0
504,135.0,-947.0,263.0,16.0,62.0,-46.0
505,133.0,-943.0,267.0,13.0,65.0,-36.0
506,128.0,-944.0,265.0,1.0,64.0,-28.0
507,126.0,-949.0,266.0,-2.0,65.0,-24.0
508,126.0,-954.0,262.0,-3.0,67.0,-22.0
509,128.0,-953.0,264.0,-1.0,68.0,-20.0
510,127.0,-948.0,267.0,-1.0,68.0,-17.0
511,122.0,-946.0,267.0,-3.0,70.0,-18.0
512,120.0,-947.0,267.0,-7.0,70.0,-18.0
513,118.0,-948.0,268.0,-11.0,69.0,-22.0
514,123.0,-952.0,265.0,-13.0,68.0,-25.0
515,124.0,-957.0,262.0,-15.0,69.0,-27.0
516,125.0,-952.0,264.0,-7.0,64.0,-24.0
517,123.0,-950.0,265.0,-8.0,65.0,-26.0
518,122.0,-951.0,266.0,-10.0,65.0,-27.0
519,118.0,-955.0,267.0,-10.0,67.0,-30.0
520,119.0,-956.0,266.0,-11.0,66.0,-34.0
521,124.0,-952.0,266.0,-12.0,63.0,-38.0
522,122.0,-950.0,265.0,-12.0,63.0,-39.0
523,125.0,-949.0,261.0,-11.0,62.0,-40.0
524,119.0,-956.0,265.0,-5.0,62.0,-46.0
525,120.0,-957.0,265.0,-5.0,61.0,-52.0
526,126.0,-955.0,265.0,-4.0,57.0,-57.0
527,141.0,-961.0,261.0,-4.0,53.0,-57.0
528,136.0,-959.0,260.0,2.0,57.0,-50.0
529,129.0,-954.0,266.0,5.0,57.0,-46.0
530,125.0,-955.0,264.0,2.0,57.0,-46.0
531,126.0,-952.0,265.0,0.0,57.0,-48.0
532,127.0,-945.0,266.0,-3.0,56.0,-50.0
533,122.0,-955.0,263.0,-13.0,64.0,-20.0
534,148.0,-1035.0,253.0,86.0,52.0,-49.0
535,148.0,-1041.0,251.0,107.0,51.0,-56.0
536,144.0,-1052.0,251.0,138.0,44.0,-68.0
537,139.0,-1079.0,257.0,175.0,32.0,-84.0
538,134.0,-1113.0,263.0,228.0,17.0,-104.0
539,112.0,-1160.0,279.0,302.0,0.0,-125.0
540,141.0,-1202.0,283.0,401.0,-36.0,-147.0
541,144.0,-1267.0,287.0,508.0,-50.0,-166.0
542,148.0,-1268.0,278.0,642.0,-62.0,-197.0
543,74.0,-1176.0,295.0,2882.0,193.0,-1355.0
544,56.0,-932.0,270.0,2941.0,131.0,-1219.0
545,155.0,-699.0,314.0,2851.0,30.0,-1017.0
546,109.0,-562.0,366.0,2631.0,102.0,-797.0
547,-14.0,-300.0,424.0,2391.0,62.0,-577.0
548,-28.0,-150.0,331.0,2009.0,-234.0,-405.0
549,281.0,-120.0,106.0,1554.0,-605.0,-302.0
550,528.0,-58.0,-89.0,1113.0,-624.0,-321.0
551,638.0,102.0,-288.0,653.0,-293.0,-349.0
552,195.0,-83.0,-348.0,40.0,337.0,-143.0
553,85.0,-198.0,-347.0,-381.0,488.0,273.0
554,56.0,-944.0,-98.0,-3157.0,-301.0,1464.0
555,1013.0,-1659.0,497.0,-2698.0,-185.0,961.0
556,1033.0,-1530.0,534.0,-2611.0,329.0,913.0
557,932.0,-1472.0,588.0,-2576.0,786.0,786.0
558,738.0,-1521.0,659.0,-2523.0,1122.0,619.0
559,365.0,-1540.0,734.0,-2328.0,1332.0,437.0
560,57.0,-1481.0,813.0,-2037.0,1284.0,249.0
561,-70.0,-1460.0,881.0,-1769.0,1015.0,93.0
562,73.0,-1405.0,882.0,-1479.0,660.0,25.0
563,317.0,-1327.0,824.0,-1176.0,429.0,-10.0
564,377.0,-1136.0,768.0,-897.0,421.0,-109.0
565,326.0,-1023.0,709.0,-754.0,490.0,-151.0
566,-121.0,-1010.0,-143.0,150.0,498.0,345.0
567,-237.0,-1245.0,-400.0,187.0,546.0,246.0
568,-328.0,-1510.0,-694.0,403.0,558.0,-13.0
569,-249.0,-1669.0,-904.0,789.0,507.0,-406.0
570,-119.0,-1623.0,-923.0,1320.0,514.0,-787.0
571,19.0,-1207.0,-525.0,1676.0,565.0,-1036.0
572,177.0,-1002.0,-147.0,1436.0,665.0,-1037.0
573,244.0,-1080.0,72.0,1081.0,815.0,-883.0
574,289.0,-999.0,92.0,683.0,632.0,-590.0
575,117.0,-947.0,153.0,886.0,31.0,330.0
576,150.0,-1012.0,100.0,631.0,7.0,156.0
577,160.0,-894.0,225.0,677.0,-15.0,149.0
578,213.0,-829.0,282.0,605.0,-39.0,133.0
579,48.0,-938.0,281.0,459.0,69.0,93.0
580,69.0,-975.0,195.0,367.0,105.0,-23.0
581,97.0,-949.0,211.0,338.0,99.0,-120.0
582,87.0,-919.0,219.0,305.0,119.0,-196.0
583,131.0,-893.0,232.0,259.0,122.0,-262.0
584,142.0,-910.0,232.0,207.0,139.0,-290.0
585,166.0,-956.0,201.0,168.0,150.0,-305.0
586,188.0,-977.0,173.0,160.0,157.0,-309.0
587,187.0,-952.0,213.0,68.0,116.0,-189.0
588,156.0,-926.0,246.0,43.0,72.0,-5.0
589,181.0,-949.0,240.0,24.0,62.0,-16.0
590,210.0,-963.0,230.0,16.0,62.0,-20.0
591,199.0,-962.0,234.0,15.0,71.0,-16.0
592,187.0,-950.0,240.0,13.0,81.0,-15.0
593,193.0,-941.0,239.0,6.0,86.0,-21.0
594,175.0,-933.0,243.0,0.0,98.0,-22.0
595,164.0,-938.0,250.0,-10.0,98.0,-28.0
596,200.0,-945.0,232.0,-21.0,86.0,-40.0
597,203.0,-949.0,225.0,-18.0,89.0,-29.0
598,203.0,-939.0,232.0,-6.0,90.0,-15.0
599,179.0,-958.0,241.0,29.0,110.0,-34.0
600,158.0,-953.0,241.0,30.0,109.0,-37.0
601,139.0,-947.0,252.0,32.0,96.0,-47.0
602,162.0,-943.0,251.0,29.0,71.0,-61.0
603,167.0,-966.0,258.0,22.0,63.0,-71.0
604,185.0,-979.0,247.0,19.0,58.0,-80.0
605,215.0,-970.0,237.0,28.0,52.0,-79.0
606,212.0,-979.0,232.0,39.0,65.0,-65.0
607,195.0,-969.0,242.0,57.0,76.0,-54.0
608,211.0,-966.0,240.0,67.0,70.0,-50.0
609,200.0,-956.0,246.0,75.0,79.0,-41.0
610,176.0,-945.0,256.0,76.0,85.0,-43.0
611,150.0,-950.0,270.0,84.0,112.0,8.0
612,171.0,-965.0,264.0,69.0,89.0,-15.0
613,184.0,-1000.0,253.0,66.0,85.0,-25.0
614,201.0,-1036.0,246.0,86.0,85.0,-28.0
615,208.0,-1030.0,248.0,122.0,81.0,-22.0
616,249.0,-1038.0,241.0,143.0,71.0,-8.0
617,276.0,-1029.0,238.0,188.0,86.0,23.0
618,249.0,-1013.0,251.0,242.0,128.0,55.0
619,217.0,-1054.0,256.0,274.0,160.0,60.0
620,265.0,-1037.0,343.0,752.0,147.0,-419.0
621,266.0,-1026.0,352.0,798.0,185.0,-428.0
622,262.0,-1046.0,360.0,829.0,222.0,-434.0
623,257.0,-1055.0,364.0,871.0,251.0,-442.0
624,245.0,-1068.0,370.0,910.0,281.0,-457.0
625,231.0,-1090.0,380.0,948.0,304.0,-484.0
626,218.0,-1105.0,390.0,995.0,321.0,-518.0
627,212.0,-1118.0,409.0,1055.0,341.0,-545.0
628,173.0,-1108.0,406.0,1120.0,378.0,-557.0
629,149.0,-1091.0,409.0,1180.0,367.0,-565.0
630,102.0,-1102.0,416.0,1219.0,331.0,-574.0
631,231.0,-489.0,-5.0,670.0,-585.0,551.0
632,-56.0,-655.0,-26.0,-758.0,-591.0,1380.0
633,250.0,-1110.0,285.0,-1235.0,-1965.0,1343.0
634,321.0,-1143.0,317.0,-1203.0,-2020.0,1331.0
635,438.0,-1158.0,341.0,-1167.0,-2030.0,1325.0
636,526.0,-1160.0,358.0,-1130.0,-1954.0,1306.0
637,533.0,-1145.0,380.0,-1092.0,-1813.0,1260.0
638,499.0,-1148.0,400.0,-1072.0,-1663.0,1216.0
639,498.0,-1161.0,419.0,-1043.0,-1548.0,1202.0
640,485.0,-1183.0,430.0,-999.0,-1449.0,1175.0
641,468.0,-1174.0,426.0,-929.0,-1378.0,1101.0
642,440.0,-1151.0,420.0,-856.0,-1333.0,1005.0
643,349.0,-1154.0,425.0,-793.0,-1295.0,907.0
644,248.0,-947.0,377.0,-404.0,-1736.0,653.0
645,28.0,-936.0,250.0,-7.0,114.0,-349.0
646,75.0,-909.0,239.0,-51.0,94.0,-406.0
647,92.0,-906.0,249.0,-79.0,87.0,-429.0
648,113.0,-932.0,229.0,-108.0,63.0,-431.0
649,181.0,-991.0,178.0,-138.0,15.0,-416.0
650,238.0,-1007.0,168.0,-122.0,-26.0,-362.0
651,270.0,-1027.0,151.0,-108.0,-37.0,-273.0
652,328.0,-1002.0,146.0,-82.0,-54.0,-166.0
653,260.0,-990.0,160.0,-57.0,-17.0,-35.0
654,182.0,-974.0,176.0,141.0,-26.0,246.0
655,100.0,-966.0,196.0,216.0,-163.0,218.0
656,119.0,-964.0,192.0,210.0,-170.0,180.0
657,115.0,-959.0,214.0,195.0,-147.0,139.0
658,78.0,-970.0,215.0,123.0,-75.0,24.0
659,83.0,-981.0,215.0,111.0,-77.0,-24.0
660,119.0,-972.0,210.0,107.0,-90.0,-52.0
661,134.0,-975.0,204.0,103.0,-91.0,-48.0
662,145.0,-986.0,195.0,107.0,-92.0,-30.0
663,155.0,-975.0,200.0,123.0,-95.0,-2.0
664,146.0,-970.0,210.0,133.0,-92.0,29.0
665,151.0,-978.0,205.0,130.0,-87.0,53.0
666,148.0,-966.0,222.0,136.0,-82.0,77.0
667,145.0,-968.0,224.0,125.0,-75.0,99.0
668,139.0,-962.0,221.0,116.0,-63.0,113.0
669,-28.0,-1201.0,300.0,398.0,-239.0,293.0
670,-42.0,-1607.0,274.0,1673.0,-620.0,679.0
671,255.0,-1307.0,150.0,2221.0,-632.0,546.0
672,210.0,-1191.0,176.0,2183.0,-560.0,493.0
673,137.0,-984.0,193.0,2152.0,-523.0,494.0
674,70.0,-745.0,252.0,2055.0,-497.0,503.0
675,-143.0,-512.0,307.0,1881.0,-474.0,561.0
676,-344.0,-358.0,312.0,1616.0,-586.0,678.0
677,-512.0,-384.0,214.0,1257.0,-817.0,863.0
678,-627.0,-398.0,39.0,940.0,-1132.0,1051.0
679,-738.0,-443.0,-124.0,636.0,-1512.0,1164.0
680,-913.0,-530.0,-217.0,354.0,-1962.0,1248.0
681,-759.0,-563.0,-289.0,147.0,-2650.0,1356.0
682,12.0,-968.0,-321.0,-1466.0,-4882.0,1935.0
683,1959.0,-1030.0,411.0,-209.0,-3726.0,468.0
684,1959.0,-965.0,500.0,-63.0,-3126.0,115.0
685,1870.0,-925.0,564.0,59.0,-2445.0,-119.0
686,1694.0,-842.0,561.0,175.0,-1833.0,-269.0
687,1625.0,-778.0,500.0,231.0,-1255.0,-399.0
688,1379.0,-704.0,368.0,205.0,-586.0,-403.0
689,980.0,-662.0,82.0,82.0,46.0,-227.0
690,538.0,-631.0,-309.0,-68.0,601.0,41.0
691,-68.0,-920.0,-463.0,-162.0,1099.0,486.0
692,-354.0,-1117.0,-109.0,50.0,1167.0,703.0
693,-542.0,-1232.0,440.0,201.0,978.0,567.0
694,-649.0,-1153.0,829.0,259.0,702.0,495.0
695,72.0,-1010.0,184.0,-67.0,-72.0,-271.0
696,145.0,-1042.0,106.0,-57.0,-81.0,-327.0
697,186.0,-988.0,157.0,16.0,-74.0,-334.0
698,187.0,-940.0,220.0,46.0,-45.0,-307.0
699,162.0,-952.0,200.0,18.0,-15.0,-288.0
700,130.0,-968.0,197.0,5.0,4.0,-287.0
701,154.0,-968.0,208.0,4.0,-8.0,-299.0
702,168.0,-1008.0,183.0,-9.0,-8.0,-304.0
703,168.0,-1018.0,150.0,1.0,4.0,-307.0
704,166.0,-988.0,187.0,31.0,6.0,-295.0
705,179.0,-982.0,186.0,24.0,3.0,-280.0
706,172.0,-959.0,198.0,-37.0,42.0,-42.0
707,181.0,-949.0,202.0,-37.0,72.0,-42.0
708,228.0,-1019.0,150.0,38.0,93.0,-7.0
709,233.0,-1005.0,165.0,72.0,100.0,38.0
710,233.0,-990.0,175.0,85.0,110.0,83.0
711,186.0,-950.0,200.0,97.0,124.0,128.0
712,114.0,-929.0,238.0,89.0,129.0,133.0
713,114.0,-948.0,211.0,51.0,115.0,81.0
714,120.0,-942.0,206.0,37.0,102.0,30.0
715,145.0,-924.0,210.0,33.0,81.0,-4.0
716,169.0,-917.0,213.0,23.0,68.0,-21.0
717,180.0,-921.0,209.0,7.0,63.0,-20.0
718,195.0,-923.0,201.0,-5.0,58.0,-11.0
719,111.0,-959.0,222.0,89.0,218.0,129.0
720,103.0,-942.0,233.0,46.0,110.0,18.0
721,102.0,-948.0,237.0,39.0,104.0,9.0
722,97.0,-963.0,227.0,33.0,98.0,-2.0
723,109.0,-963.0,227.0,35.0,87.0,-14.0
724,121.0,-963.0,231.0,34.0,79.0,-22.0
725,126.0,-962.0,228.0,32.0,76.0,-23.0
726,129.0,-954.0,234.0,30.0,73.0,-21.0
727,130.0,-953.0,232.0,24.0,75.0,-16.0
728,126.0,-954.0,231.0,18.0,79.0,-13.0
729,119.0,-967.0,226.0,-9.0,77.0,-35.0
730,122.0,-973.0,226.0,-5.0,75.0,-37.0
731,119.0,-968.0,232.0,-4.0,73.0,-36.0
732,122.0,-967.0,225.0,-8.0,70.0,-34.0
733,122.0,-958.0,229.0,-4.0,67.0,-31.0
734,118.0,-949.0,237.0,-6.0,65.0,-28.0
735,117.0,-947.0,238.0,-12.0,62.0,-26.0
736,123.0,-956.0,234.0,-20.0,60.0,-25.0
737,130.0,-961.0,229.0,-25.0,57.0,-23.0
738,122.0,-958.0,229.0,-27.0,60.0,-18.0
739,121.0,-964.0,229.0,-33.0,61.0,-21.0
740,121.0,-966.0,230.0,-48.0,66.0,-39.0
741,153.0,-956.0,203.0,-89.0,81.0,-124.0
742,151.0,-951.0,208.0,-86.0,83.0,-116.0
743,149.0,-954.0,210.0,-87.0,84.0,-110.0
744,148.0,-965.0,206.0,-91.0,82.0,-106.0
745,156.0,-968.0,202.0,-92.0,79.0,-105.0
746,150.0,-971.0,196.0,-90.0,79.0,-101.0
747,153.0,-966.0,196.0,-85.0,76.0,-99.0
748,143.0,-962.0,203.0,-80.0,74.0,-97.0
749,136.0,-966.0,203.0,-78.0,71.0,-95.0
750,148.0,-971.0,194.0,-72.0,61.0,-98.0
751,162.0,-966.0,196.0,-59.0,48.0,-93.0
752,170.0,-962.0,193.0,-51.0,41.0,-81.0
753,169.0,-964.0,196.0,-47.0,36.0,-68.0
754,176.0,-964.0,193.0,-45.0,31.0,-59.0
755,178.0,-963.0,193.0,-43.0,30.0,-50.0
756,174.0,-962.0,190.0,-22.0,52.0,-59.0
757,169.0,-968.0,187.0,12.0,50.0,-76.0
758,166.0,-951.0,196.0,7.0,27.0,-93.0
759,177.0,-955.0,189.0,-5.0,24.0,-97.0
760,181.0,-956.0,184.0,-10.0,26.0,-94.0
761,176.0,-949.0,190.0,-13.0,30.0,-90.0
762,150.0,-946.0,197.0,-17.0,33.0,-88.0
763,147.0,-947.0,201.0,-23.0,25.0,-99.0
764,160.0,-948.0,198.0,-31.0,12.0,-113.0
765,166.0,-957.0,193.0,-38.0,7.0,-122.0
766,181.0,-953.0,185.0,-49.0,68.0,-66.0
767,203.0,-955.0,178.0,-5.0,35.0,-101.0
768,221.0,-959.0,181.0,26.0,59.0,20.0
769,218.0,-964.0,175.0,70.0,56.0,5.0
770,225.0,-961.0,178.0,80.0,57.0,13.0
771,226.0,-961.0,178.0,90.0,62.0,28.0
772,220.0,-967.0,179.0,97.0,71.0,42.0
773,225.0,-972.0,176.0,107.0,75.0,52.0
774,207.0,-988.0,172.0,120.0,86.0,61.0
775,201.0,-998.0,171.0,140.0,92.0,53.0
776,209.0,-988.0,185.0,171.0,86.0,48.0
777,211.0,-1008.0,178.0,182.0,84.0,49.0
778,215.0,-1031.0,170.0,204.0,84.0,47.0
779,206.0,-1038.0,174.0,240.0,84.0,47.0
780,291.0,-1927.0,248.0,1634.0,289.0,-577.0
781,273.0,-1959.0,188.0,1976.0,345.0,-534.0
782,153.0,-1957.0,113.0,2310.0,395.0,-613.0
783,16.0,-1959.0,65.0,2455.0,453.0,-720.0
784,-37.0,-1959.0,40.0,2740.0,410.0,-793.0
785,-22.0,-1925.0,-30.0,3054.0,408.0,-866.0
786,-145.0,-1644.0,-139.0,3335.0,443.0,-803.0
787,-70.0,-1304.0,-182.0,3480.0,313.0,-648.0
788,-146.0,-895.0,-21.0,3556.0,252.0,-514.0
789,-205.0,-603.0,124.0,3430.0,129.0,-356.0
790,-254.0,-341.0,272.0,3250.0,-75.0,-77.0
791,-172.0,-622.0,-257.0,-2500.0,-593.0,1316.0
792,482.0,-1136.0,35.0,-2793.0,-979.0,1053.0
793,427.0,-1383.0,455.0,-1939.0,-417.0,667.0
794,556.0,-1267.0,455.0,-1851.0,-261.0,547.0
795,561.0,-1246.0,529.0,-1817.0,-114.0,361.0
796,506.0,-1317.0,643.0,-1743.0,-36.0,177.0
797,369.0,-1405.0,746.0,-1553.0,17.0,46.0
798,280.0,-1355.0,796.0,-1232.0,18.0,-31.0
799,286.0,-1284.0,778.0,-922.0,-7.0,-76.0
800,236.0,-1208.0,702.0,-658.0,26.0,-106.0
801,150.0,-1089.0,594.0,-432.0,77.0,-119.0
802,98.0,-924.0,460.0,-288.0,89.0,-112.0
803,66.0,-1727.0,-897.0,1145.0,212.0,-708.0
804,135.0,-1417.0,-620.0,1500.0,384.0,-750.0
805,215.0,-1139.0,-137.0,1468.0,509.0,-658.0
806,287.0,-1031.0,266.0,1159.0,551.0,-537.0
807,247.0,-1003.0,347.0,839.0,594.0,-443.0
808,111.0,-981.0,155.0,616.0,613.0,-394.0
809,49.0,-999.0,-41.0,496.0,542.0,-393.0
810,36.0,-984.0,-83.0,485.0,458.0,-409.0
811,45.0,-973.0,-75.0,511.0,404.0,-430.0
812,83.0,-977.0,-43.0,538.0,367.0,-446.0
813,107.0,-980.0,-22.0,563.0,325.0,-447.0
814,38.0,-876.0,278.0,742.0,122.0,285.0
815,178.0,-1006.0,172.0,165.0,116.0,-363.0
816,239.0,-1008.0,136.0,178.0,95.0,-323.0
817,248.0,-958.0,160.0,232.0,85.0,-233.0
818,196.0,-949.0,184.0,260.0,97.0,-134.0
819,179.0,-950.0,171.0,267.0,93.0,-84.0
820,172.0,-945.0,186.0,276.0,88.0,-54.0
821,136.0,-940.0,204.0,273.0,100.0,-32.0
822,137.0,-947.0,214.0,261.0,89.0,-38.0
823,156.0,-953.0,215.0,237.0,83.0,-55.0
824,134.0,-946.0,221.0,220.0,92.0,-60.0
825,96.0,-948.0,223.0,195.0,99.0,-79.0
826,214.0,-969.0,216.0,60.0,117.0,-143.0
827,222.0,-951.0,223.0,74.0,121.0,-128.0
828,202.0,-948.0,224.0,76.0,143.0,-110.0
829,206.0,-937.0,225.0,82.0,147.0,-97.0
830,206.0,-928.0,223.0,86.0,153.0,-78.0
831,243.0,-893.0,225.0,92.0,154.0,-51.0
832,227.0,-895.0,231.0,80.0,164.0,-3.0
833,192.0,-887.0,244.0,86.0,190.0,26.0
834,202.0,-890.0,241.0,77.0,191.0,46.0
835,190.0,-1019.0,244.0,97.0,205.0,-133.0
836,293.0,-1468.0,353.0,1298.0,397.0,-1097.0
837,195.0,-1419.0,355.0,1476.0,433.0,-1199.0
838,126.0,-1413.0,373.0,1612.0,445.0,-1284.0
839,90.0,-1331.0,343.0,1776.0,418.0,-1349.0
840,75.0,-1292.0,323.0,1880.0,403.0,-1419.0
841,86.0,-1254.0,311.0,1962.0,388.0,-1485.0
842,96.0,-1227.0,270.0,2033.0,385.0,-1540.0
843,133.0,-1213.0,262.0,2087.0,377.0,-1593.0
844,70.0,-1254.0,287.0,2121.0,432.0,-1619.0
845,-22.0,-1257.0,319.0,2215.0,457.0,-1568.0
846,-12.0,-1271.0,390.0,2333.0,386.0,-1437.0
847,511.0,88.0,-341.0,-197.0,619.0,-82.0
848,-474.0,-325.0,-287.0,-2217.0,1325.0,1858.0
849,277.0,-1526.0,215.0,-3752.0,-744.0,1353.0
850,241.0,-1589.0,283.0,-3647.0,-734.0,1232.0
851,107.0,-1630.0,378.0,-3549.0,-711.0,1177.0
852,56.0,-1710.0,473.0,-3491.0,-768.0,1189.0
853,154.0,-1810.0,541.0,-3422.0,-869.0,1248.0
854,327.0,-1852.0,595.0,-3307.0,-881.0,1306.0
855,532.0,-1801.0,627.0,-3159.0,-790.0,1362.0
856,731.0,-1653.0,618.0,-3014.0,-617.0,1411.0
857,878.0,-1537.0,570.0,-2946.0,-368.0,1392.0
858,946.0,-1489.0,518.0,-2926.0,-90.0,1293.0
859,923.0,-1481.0,498.0,-2887.0,172.0,1150.0
860,98.0,-965.0,586.0,-480.0,388.0,-35.0
861,76.0,-951.0,512.0,-393.0,369.0,-3.0
862,61.0,-948.0,476.0,-311.0,299.0,-4.0
863,119.0,-953.0,431.0,-218.0,174.0,-24.0
864,176.0,-919.0,396.0,-107.0,61.0,-69.0
865,193.0,-902.0,376.0,-26.0,-24.0,-152.0
866,213.0,-927.0,352.0,40.0,-105.0,-251.0
867,160.0,-929.0,346.0,134.0,-159.0,-323.0
868,194.0,-1040.0,346.0,231.0,-249.0,-374.0
869,208.0,-1290.0,347.0,524.0,-300.0,-462.0
870,282.0,-1177.0,428.0,1132.0,-354.0,-542.0
871,278.0,-872.0,138.0,1214.0,287.0,-849.0
872,254.0,-977.0,147.0,3.0,127.0,-527.0
873,234.0,-959.0,150.0,24.0,116.0,-445.0
874,243.0,-945.0,150.0,42.0,97.0,-384.0
875,245.0,-933.0,158.0,64.0,80.0,-313.0
876,253.0,-962.0,130.0,77.0,68.0,-245.0
877,271.0,-961.0,140.0,115.0,55.0,-174.0
878,294.0,-957.0,137.0,159.0,47.0,-85.0
879,295.0,-952.0,118.0,219.0,50.0,22.0
880,269.0,-945.0,158.0,285.0,43.0,116.0
881,162.0,-992.0,225.0,115.0,-22.0,-195.0
882,212.0,-992.0,211.0,128.0,-19.0,-174.0
883,208.0,-966.0,220.0,154.0,7.0,-125.0
884,162.0,-936.0,253.0,169.0,38.0,-75.0
885,126.0,-927.0,260.0,155.0,54.0,-58.0
886,135.0,-923.0,245.0,138.0,59.0,-67.0
887,117.0,-918.0,256.0,126.0,67.0,-73.0
888,86.0,-925.0,269.0,110.0,66.0,-86.0
889,102.0,-950.0,259.0,83.0,46.0,-118.0
890,136.0,-957.0,250.0,68.0,28.0,-139.0
891,160.0,-952.0,250.0,64.0,24.0,-137.0
892,161.0,-958.0,246.0,62.0,33.0,-123.0
893,149.0,-972.0,247.0,61.0,43.0,-112.0
894,151.0,-979.0,246.0,64.0,45.0,-111.0
895,160.0,-978.0,245.0,71.0,48.0,-112.0
896,201.0,-998.0,259.0,135.0,150.0,-95.0
897,192.0,-998.0,272.0,167.0,182.0,-118.0
898,166.0,-990.0,281.0,215.0,197.0,-185.0
899,158.0,-954.0,269.0,243.0,175.0,-235.0
900,162.0,-973.0,277.0,244.0,174.0,-260.0
901,222.0,-996.0,271.0,249.0,172.0,-293.0
902,227.0,-999.0,278.0,279.0,203.0,-317.0
903,204.0,-967.0,284.0,307.0,224.0,-349.0
904,135.0,-971.0,290.0,317.0,240.0,-392.0
905,105.0,-996.0,304.0,332.0,218.0,-431.0
906,121.0,-1004.0,308.0,363.0,173.0,-461.0
907,238.0,-1015.0,286.0,429.0,127.0,-513.0
908,368.0,-1250.0,356.0,1185.0,287.0,-1058.0
909,428.0,-1283.0,351.0,1289.0,332.0,-1153.0
910,444.0,-1346.0,344.0,1398.0,422.0,-1260.0
911,431.0,-1381.0,328.0,1529.0,530.0,-1362.0
912,344.0,-1425.0,337.0,1660.0,648.0,-1440.0
913,288.0,-1416.0,303.0,1828.0,715.0,-1487.0
914,267.0,-1374.0,343.0,1977.0,738.0,-1541.0
915,146.0,-1426.0,484.0,2065.0,828.0,-1584.0
916,79.0,-1481.0,524.0,2234.0,809.0,-1582.0
917,64.0,-1255.0,419.0,2518.0,670.0,-1562.0
918,111.0,-1117.0,395.0,2572.0,542.0,-1492.0
919,72.0,-1141.0,425.0,2522.0,498.0,-1293.0
920,154.0,-1094.0,439.0,2586.0,303.0,-977.0
921,-627.0,-335.0,-92.0,-1967.0,1043.0,1594.0
922,561.0,-1310.0,320.0,-2578.0,-598.0,1211.0
923,580.0,-1300.0,298.0,-2572.0,-419.0,1201.0
924,570.0,-1325.0,288.0,-2558.0,-242.0,1161.0
925,512.0,-1299.0,293.0,-2517.0,-84.0,1113.0
926,452.0,-1381.0,306.0,-2478.0,2.0,1017.0
927,337.0,-1374.0,396.0,-2360.0,12.0,892.0
928,240.0,-1582.0,465.0,-2243.0,-36.0,745.0
929,118.0,-954.0,563.0,-2056.0,-151.0,634.0
930,171.0,-1335.0,508.0,-2543.0,-283.0,754.0
931,124.0,-1694.0,488.0,-2379.0,-393.0,719.0
932,396.0,-1355.0,570.0,-1762.0,-582.0,508.0
933,207.0,-961.0,739.0,44.0,-476.0,-177.0
934,351.0,-822.0,404.0,2090.0,-109.0,-748.0
935,135.0,-859.0,240.0,1795.0,202.0,-779.0
936,-173.0,-991.0,45.0,1665.0,300.0,-875.0
937,-119.0,-1057.0,-68.0,1669.0,77.0,-970.0
938,167.0,-964.0,-42.0,1740.0,-190.0,-845.0
939,378.0,-808.0,88.0,1749.0,-312.0,-481.0
940,389.0,-772.0,201.0,1540.0,-267.0,-127.0
941,402.0,-738.0,317.0,1234.0,-206.0,86.0
942,217.0,-779.0,378.0,919.0,13.0,216.0
943,270.0,-836.0,293.0,677.0,51.0,249.0
944,254.0,-945.0,226.0,498.0,88.0,310.0
945,13.0,-1026.0,186.0,411.0,235.0,343.0
946,29.0,-1030.0,165.0,408.0,194.0,255.0
947,16.0,-962.0,209.0,433.0,172.0,213.0
948,-10.0,-943.0,258.0,409.0,169.0,184.0
949,48.0,-938.0,209.0,339.0,151.0,124.0
950,80.0,-934.0,243.0,101.0,81.0,-121.0
951,62.0,-932.0,247.0,87.0,74.0,-105.0
952,45.0,-933.0,253.0,69.0,69.0,-104.0
953,82.0,-940.0,244.0,50.0,53.0,-111.0
954,80.0,-965.0,234.0,32.0,63.0,-109.0
955,62.0,-967.0,232.0,27.0,69.0,-115.0
956,71.0,-973.0,236.0,22.0,62.0,-132.0
957,88.0,-977.0,236.0,16.0,58.0,-141.0
958,114.0,-980.0,231.0,13.0,59.0,-138.0
959,57.0,-1004.0,243.0,29.0,9.0,14.0
960,71.0,-998.0,243.0,31.0,-5.0,-7.0
961,92.0,-982.0,241.0,35.0,-13.0,-19.0
962,59.0,-980.0,247.0,35.0,-4.0,-27.0
963,61.0,-988.0,240.0,35.0,-15.0,-47.0
964,85.0,-978.0,243.0,43.0,-28.0,-64.0
965,75.0,-972.0,242.0,47.0,-27.0,-69.0
966,82.0,-961.0,243.0,47.0,-35.0,-76.0
967,100.0,-960.0,242.0,45.0,-44.0,-83.0
968,95.0,-962.0,242.0,44.0,-40.0,-80.0
969,116.0,-963.0,242.0,-22.0,-71.0,5.0
970,100.0,-976.0,237.0,1.0,-168.0,-24.0
971,96.0,-984.0,247.0,83.0,-155.0,59.0
972,99.0,-996.0,242.0,87.0,-158.0,57.0
973,81.0,-1003.0,245.0,97.0,-160.0,59.0
974,95.0,-1000.0,238.0,112.0,-175.0,64.0
975,86.0,-1018.0,221.0,129.0,-178.0,74.0
976,119.0,-1003.0,234.0,159.0,-203.0,93.0
977,88.0,-972.0,262.0,170.0,-195.0,107.0
978,58.0,-970.0,276.0,160.0,-194.0,109.0
979,86.0,-979.0,268.0,149.0,-216.0,102.0
980,93.0,-985.0,267.0,140.0,-213.0,96.0
981,63.0,-1019.0,272.0,125.0,-206.0,97.0
982,14.0,-1063.0,282.0,126.0,-202.0,99.0
983,-30.0,-1107.0,289.0,135.0,-229.0,123.0
984,-24.0,-1125.0,291.0,154.0,-283.0,157.0
985,-105.0,-1163.0,295.0,177.0,-288.0,206.0
986,-474.0,-689.0,227.0,220.0,-1180.0,1010.0
987,-38.0,-978.0,-288.0,-541.0,-3622.0,1173.0
988,381.0,-1082.0,-329.0,-400.0,-4554.0,1066.0
989,429.0,-1077.0,-301.0,-379.0,-4516.0,1034.0
990,455.0,-1059.0,-272.0,-356.0,-4449.0,993.0
991,478.0,-1038.0,-243.0,-348.0,-4376.0,937.0
992,489.0,-1034.0,-219.0,-359.0,-4293.0,879.0
993,473.0,-1046.0,-191.0,-375.0,-4204.0,831.0
994,455.0,-1069.0,-163.0,-375.0,-4123.0,791.0
995,473.0,-1066.0,-141.0,-345.0,-4051.0,741.0
996,486.0,-1056.0,-119.0,-315.0,-3961.0,679.0
997,479.0,-1074.0,-100.0,-304.0,-3853.0,617.0
998,177.0,-1053.0,296.0,-433.0,-1963.0,241.0
999,208.0,-1018.0,385.0,-386.0,-1713.0,211.0
1000,160.0,-1063.0,418.0,-384.0,-1606.0,187.0
1001,151.0,-1085.0,442.0,-333.0,-1556.0,151.0
1002,172.0,-1067.0,471.0,-252.0,-1531.0,125.0
1003,223.0,-1075.0,482.0,-195.0,-1508.0,104.0
1004,300.0,-1090.0,473.0,-129.0,-1459.0,85.0
1005,387.0,-1045.0,436.0,-37.0,-1364.0,68.0
1006,361.0,-968.0,374.0,30.0,-1205.0,43.0
1007,276.0,-902.0,317.0,57.0,-1048.0,26.0
1008,279.0,-860.0,168.0,141.0,-573.0,-239.0
1009,127.0,-964.0,225.0,-29.0,9.0,-188.0
1010,148.0,-984.0,215.0,-44.0,-1.0,-204.0
1011,173.0,-994.0,195.0,-48.0,0.0,-213.0
1012,154.0,-972.0,208.0,-37.0,16.0,-204.0
1013,119.0,-954.0,224.0,-34.0,18.0,-200.0
1014,134.0,-956.0,221.0,-45.0,-2.0,-218.0
1015,159.0,-957.0,205.0,-55.0,-15.0,-228.0
1016,182.0,-949.0,205.0,-56.0,-17.0,-220.0
1017,191.0,-941.0,213.0,-54.0,-14.0,-197.0
1018,201.0,-946.0,208.0,-60.0,-10.0,-167.0
1019,183.0,-936.0,215.0,-64.0,-1.0,-137.0
1020,205.0,-981.0,182.0,25.0,60.0,-2.0
1021,133.0,-952.0,209.0,-50.0,86.0,28.0
1022,115.0,-979.0,218.0,-123.0,75.0,-85.0
1023,68.0,-997.0,221.0,-141.0,57.0,-127.0
1024,50.0,-1016.0,227.0,-149.0,4.0,-188.0
1025,96.0,-1026.0,213.0,-157.0,-78.0,-266.0
1026,109.0,-1026.0,204.0,-156.0,-135.0,-306.0
1027,49.0,-1006.0,255.0,-134.0,-188.0,-292.0
1028,10.0,-990.0,260.0,-154.0,-276.0,-307.0
1029,-35.0,-1081.0,236.0,-199.0,-448.0,-289.0
1030,57.0,-1073.0,182.0,-141.0,-662.0,-217.0
1031,43.0,-1014.0,212.0,-50.0,-756.0,-68.0
1032,110.0,-879.0,309.0,-6.0,-843.0,87.0
1033,308.0,-846.0,-99.0,492.0,-1856.0,353.0
1034,288.0,-909.0,189.0,-225.0,205.0,102.0
1035,218.0,-970.0,194.0,-217.0,294.0,212.0
1036,124.0,-1022.0,257.0,-174.0,347.0,275.0
1037,99.0,-1100.0,219.0,-145.0,328.0,265.0
1038,148.0,-1106.0,191.0,-88.0,286.0,230.0
1039,134.0,-1097.0,222.0,-51.0,279.0,228.0
1040,120.0,-1108.0,196.0,-49.0,269.0,230.0
1041,110.0,-1092.0,190.0,-31.0,246.0,217.0
1042,121.0,-985.0,188.0,-57.0,113.0,-3.0
1043,115.0,-983.0,191.0,-45.0,114.0,9.0
1044,116.0,-978.0,193.0,-36.0,113.0,18.0
1045,111.0,-980.0,195.0,-28.0,115.0,26.0
1046,96.0,-982.0,192.0,-22.0,121.0,26.0
1047,104.0,-981.0,196.0,-17.0,119.0,16.0
1048,89.0,-990.0,200.0,-16.0,120.0,7.0
1049,85.0,-986.0,208.0,-15.0,118.0,-7.0
1050,84.0,-976.0,221.0,-18.0,114.0,-18.0
1051,78.0,-981.0,222.0,-29.0,108.0,-27.0
1052,54.0,-997.0,196.0,-40.0,100.0,-44.0
1053,47.0,-1498.0,226.0,875.0,-27.0,-706.0
1054,-377.0,-512.0,-469.0,-1006.0,892.0,1293.0
1055,-330.0,-574.0,-460.0,-1204.0,749.0,1374.0
1056,-286.0,-623.0,-434.0,-1363.0,580.0,1398.0
1057,-235.0,-635.0,-413.0,-1502.0,388.0,1396.0
1058,-166.0,-632.0,-398.0,-1673.0,177.0,1367.0
1059,-64.0,-698.0,-378.0,-1912.0,-35.0,1303.0
1060,60.0,-874.0,-348.0,-2150.0,-218.0,1236.0
1061,145.0,-994.0,-280.0,-2260.0,-340.0,1170.0
1062,183.0,-1013.0,-205.0,-2291.0,-430.0,1082.0
1063,191.0,-1000.0,-169.0,-2356.0,-518.0,998.0
1064,181.0,-1069.0,-133.0,-2499.0,-619.0,947.0
1065,-31.0,-1250.0,574.0,-1215.0,898.0,199.0
1066,-34.0,-913.0,260.0,-336.0,-60.0,35.0
1067,-4.0,-928.0,252.0,-289.0,-88.0,13.0
1068,33.0,-898.0,212.0,-220.0,-83.0,-1.0
1069,102.0,-861.0,194.0,-167.0,-47.0,2.0
1070,156.0,-885.0,207.0,-149.0,29.0,-7.0
1071,162.0,-894.0,233.0,-107.0,139.0,-30.0
1072,114.0,-894.0,262.0,-43.0,245.0,-40.0
1073,107.0,-899.0,298.0,25.0,293.0,-36.0
1074,143.0,-1034.0,344.0,102.0,296.0,-42.0
1075,189.0,-1105.0,344.0,368.0,266.0,-240.0
1076,223.0,-737.0,385.0,680.0,209.0,-511.0
1077,135.0,-786.0,339.0,560.0,184.0,-498.0
1078,121.0,-796.0,220.0,452.0,88.0,-416.0
1079,73.0,-958.0,3.0,363.0,22.0,-334.0
1080,-75.0,-1266.0,-353.0,387.0,4.0,-279.0
1081,-272.0,-1927.0,-1041.0,1031.0,-85.0,-592.0
1082,79.0,-876.0,191.0,607.0,62.0,-67.0
1083,65.0,-981.0,154.0,154.0,233.0,-456.0
1084,96.0,-962.0,186.0,143.0,220.0,-506.0
1085,146.0,-974.0,186.0,120.0,207.0,-537.0
1086,154.0,-991.0,127.0,100.0,208.0,-532.0
1087,132.0,-967.0,165.0,126.0,202.0,-505.0
1088,134.0,-932.0,208.0,136.0,177.0,-495.0
1089,184.0,-937.0,182.0,106.0,143.0,-485.0
1090,197.0,-947.0,163.0,86.0,138.0,-445.0
1091,162.0,-975.0,169.0,77.0,159.0,-400.0
1092,161.0,-983.0,163.0,68.0,162.0,-385.0
1093,202.0,-983.0,138.0,60.0,149.0,-353.0
1094,188.0,-945.0,220.0,357.0,47.0,659.0
1095,142.0,-973.0,211.0,46.0,79.0,-207.0
1096,131.0,-961.0,231.0,49.0,96.0,-201.0
1097,129.0,-955.0,235.0,37.0,112.0,-204.0
1098,118.0,-944.0,239.0,25.0,123.0,-207.0
1099,108.0,-955.0,238.0,7.0,131.0,-218.0
1100,119.0,-961.0,232.0,-11.0,131.0,-233.0
1101,144.0,-972.0,219.0,-18.0,128.0,-240.0
1102,133.0,-969.0,229.0,-10.0,135.0,-235.0
1103,147.0,-970.0,225.0,-9.0,134.0,-234.0
1104,158.0,-973.0,218.0,-7.0,136.0,-228.0
1105,146.0,-951.0,229.0,5.0,142.0,-215.0
1106,237.0,-1005.0,216.0,114.0,156.0,-237.0
1107,291.0,-1088.0,250.0,490.0,19.0,-496.0
1108,233.0,-1297.0,321.0,924.0,45.0,-853.0
1109,369.0,-1241.0,270.0,1858.0,396.0,-1440.0
1110,314.0,-1255.0,288.0,1944.0,492.0,-1538.0
1111,278.0,-1313.0,344.0,2014.0,544.0,-1644.0
1112,205.0,-1320.0,466.0,2133.0,570.0,-1707.0
1113,184.0,-1306.0,510.0,2264.0,518.0,-1752.0
1114,235.0,-1164.0,515.0,2405.0,391.0,-1771.0
1115,172.0,-1177.0,564.0,2401.0,338.0,-1722.0
1116,108.0,-1158.0,593.0,2452.0,239.0,-1522.0
1117,-553.0,-293.0,-383.0,-1594.0,986.0,1566.0
1118,882.0,-1624.0,333.0,-3187.0,197.0,1480.0
1119,904.0,-1560.0,360.0,-3175.0,498.0,1401.0
1120,765.0,-1468.0,438.0,-3200.0,771.0,1243.0
1121,675.0,-1783.0,533.0,-3301.0,875.0,1037.0
1122,460.0,-1760.0,767.0,-3019.0,918.0,772.0
1123,297.0,-1585.0,1014.0,-2780.0,834.0,631.0
1124,155.0,-1649.0,1149.0,-2713.0,676.0,572.0
1125,143.0,-1620.0,1243.0,-2497.0,439.0,466.0
1126,265.0,-1435.0,1297.0,-2224.0,195.0,398.0
1127,395.0,-1342.0,1348.0,-1919.0,44.0,340.0
1128,605.0,-1407.0,1393.0,-1565.0,-43.0,254.0
1129,181.0,-1840.0,-1017.0,3538.0,51.0,-1528.0
1130,61.0,-981.0,158.0,83.0,145.0,-468.0
1131,115.0,-956.0,161.0,88.0,102.0,-511.0
1132,146.0,-959.0,120.0,87.0,86.0,-495.0
1133,145.0,-979.0,95.0,114.0,89.0,-448.0
1134,117.0,-953.0,150.0,159.0,91.0,-408.0
1135,114.0,-964.0,169.0,132.0,94.0,-397.0
1136,160.0,-958.0,164.0,83.0,85.0,-395.0
1137,151.0,-970.0,145.0,38.0,98.0,-363.0
1138,152.0,-996.0,119.0,14.0,105.0,-345.0
1139,181.0,-1001.0,104.0,30.0,100.0,-339.0
1140,160.0,-996.0,107.0,68.0,107.0,-310.0
1141,172.0,-970.0,167.0,155.0,70.0,-180.0
1142,235.0,-978.0,150.0,-72.0,92.0,-400.0
1143,221.0,-966.0,154.0,-64.0,95.0,-373.0
1144,235.0,-953.0,147.0,-63.0,93.0,-354.0
1145,240.0,-959.0,141.0,-50.0,92.0,-326.0
1146,263.0,-965.0,127.0,-29.0,80.0,-287.0
1147,271.0,-952.0,133.0,12.0,74.0,-235.0
1148,254.0,-937.0,153.0,50.0,76.0,-178.0
1149,275.0,-936.0,145.0,64.0,73.0,-136.0
1150,276.0,-932.0,148.0,79.0,84.0,-90.0
1151,245.0,-934.0,149.0,97.0,108.0,-48.0
1152,239.0,-925.0,158.0,114.0,112.0,-19.0
1153,244.0,-962.0,193.0,150.0,204.0,-132.0
1154,289.0,-1004.0,210.0,377.0,88.0,-351.0
1155,295.0,-1023.0,209.0,408.0,100.0,-373.0
1156,304.0,-1018.0,201.0,446.0,109.0,-399.0
1157,316.0,-984.0,218.0,485.0,116.0,-435.0
1158,312.0,-1007.0,215.0,491.0,135.0,-457.0
1159,351.0,-983.0,219.0,513.0,140.0,-484.0
1160,369.0,-950.0,218.0,512.0,170.0,-534.0
1161,288.0,-1031.0,241.0,459.0,219.0,-562.0
1162,346.0,-1061.0,233.0,468.0,220.0,-593.0
1163,413.0,-1098.0,219.0,503.0,250.0,-624.0
1164,503.0,-1077.0,201.0,546.0,297.0,-664.0
1165,478.0,-1117.0,225.0,559.0,415.0,-686.0
1166,445.0,-1198.0,240.0,589.0,506.0,-712.0
1167,407.0,-1224.0,256.0,662.0,572.0,-724.0
1168,376.0,-1262.0,282.0,747.0,615.0,-747.0
1169,121.0,-1116.0,146.0,3324.0,552.0,-1431.0
1170,158.0,-107.0,-352.0,-1084.0,1535.0,615.0
1171,-227.0,-220.0,-270.0,-1430.0,1801.0,960.0
1172,-376.0,-544.0,-262.0,-1705.0,1683.0,1244.0
1173,-474.0,-392.0,-232.0,-1558.0,1505.0,1366.0
1174,-520.0,-208.0,-237.0,-1560.0,1242.0,1502.0
1175,-498.0,-242.0,-284.0,-1811.0,917.0,1644.0
1176,-401.0,-210.0,-327.0,-2028.0,568.0,1661.0
1177,-282.0,-262.0,-354.0,-2298.0,267.0,1647.0
1178,-182.0,-508.0,-351.0,-2559.0,58.0,1684.0
1179,-211.0,-649.0,-275.0,-2570.0,-48.0,1703.0
1180,-178.0,-651.0,-221.0,-2478.0,-192.0,1651.0
1181,712.0,-1575.0,275.0,-2973.0,-661.0,1277.0
1182,502.0,-1236.0,854.0,-1717.0,668.0,27.0
1183,272.0,-1131.0,872.0,-1584.0,790.0,-107.0
1184,-118.0,-1184.0,982.0,-1525.0,776.0,-181.0
1185,-181.0,-1134.0,1016.0,-1383.0,456.0,-184.0
1186,-76.0,-1244.0,1000.0,-1244.0,64.0,-176.0
1187,52.0,-1239.0,946.0,-965.0,-267.0,-219.0
1188,140.0,-1106.0,850.0,-641.0,-485.0,-243.0
1189,227.0,-1083.0,735.0,-431.0,-604.0,-230.0
1190,162.0,-1074.0,669.0,-241.0,-612.0,-260.0
1191,51.0,-981.0,638.0,-38.0,-647.0,-307.0
1192,128.0,-690.0,-63.0,2398.0,420.0,-1565.0
1193,431.0,-523.0,192.0,2156.0,194.0,-1108.0
1194,1052.0,-385.0,622.0,1719.0,-117.0,-472.0
1195,457.0,-639.0,541.0,1142.0,52.0,243.0
1196,256.0,-964.0,156.0,761.0,-80.0,504.0
1197,288.0,-1004.0,53.0,677.0,-218.0,517.0
1198,314.0,-948.0,93.0,666.0,-209.0,509.0
1199,225.0,-964.0,101.0,600.0,-33.0,474.0
1200,31.0,-922.0,203.0,514.0,119.0,377.0
1201,-7.0,-894.0,249.0,415.0,105.0,219.0
1202,47.0,-964.0,202.0,293.0,64.0,44.0
1203,9.0,-950.0,225.0,280.0,144.0,58.0
1204,70.0,-957.0,206.0,232.0,116.0,-47.0
1205,143.0,-971.0,182.0,201.0,94.0,-103.0
1206,174.0,-1002.0,159.0,190.0,97.0,-108.0
1207,192.0,-984.0,161.0,211.0,100.0,-85.0
1208,161.0,-952.0,167.0,236.0,108.0,-33.0
1209,163.0,-920.0,190.0,255.0,95.0,21.0
1210,224.0,-885.0,180.0,269.0,72.0,108.0
1211,270.0,-880.0,174.0,289.0,66.0,246.0
1212,198.0,-955.0,220.0,204.0,38.0,246.0
1213,110.0,-971.0,226.0,99.0,45.0,-20.0
1214,86.0,-957.0,250.0,49.0,5.0,-68.0
1215,75.0,-955.0,252.0,46.0,1.0,-74.0
1216,69.0,-943.0,260.0,44.0,-11.0,-78.0
1217,88.0,-959.0,256.0,28.0,-27.0,-89.0
1218,121.0,-966.0,248.0,24.0,-32.0,-94.0
1219,100.0,-964.0,251.0,33.0,-19.0,-85.0
1220,90.0,-956.0,253.0,31.0,-15.0,-84.0
1221,86.0,-947.0,256.0,32.0,-18.0,-89.0
1222,80.0,-962.0,244.0,30.0,-22.0,-99.0
1223,82.0,-958.0,253.0,37.0,-30.0,-113.0
1224,132.0,-943.0,256.0,37.0,-45.0,-118.0
1225,134.0,-944.0,253.0,29.0,-31.0,-104.0
1226,102.0,-942.0,259.0,23.0,-13.0,-89.0
1227,91.0,-948.0,261.0,10.0,-12.0,-92.0
1228,123.0,-951.0,253.0,-1.0,-24.0,-99.0
1229,139.0,-958.0,252.0,-6.0,-24.0,-89.0
1230,129.0,-961.0,245.0,-7.0,-15.0,-69.0
1231,120.0,-973.0,246.0,-16.0,-21.0,27.0
1232,88.0,-975.0,253.0,-20.0,-12.0,18.0
1233,76.0,-980.0,254.0,-18.0,-26.0,7.0
1234,91.0,-977.0,253.0,-14.0,-49.0,-2.0
1235,97.0,-975.0,247.0,-8.0,-65.0,-2.0
1236,93.0,-974.0,249.0,2.0,-76.0,5.0
1237,108.0,-967.0,252.0,12.0,-92.0,12.0
1238,98.0,-972.0,247.0,14.0,-97.0,19.0
1239,100.0,-965.0,247.0,39.0,-127.0,30.0
1240,98.0,-965.0,248.0,48.0,-137.0,35.0
1241,133.0,-971.0,247.0,59.0,-144.0,49.0
1242,50.0,-1137.0,255.0,662.0,-506.0,706.0
1243,72.0,-1074.0,242.0,712.0,-493.0,739.0
1244,39.0,-1055.0,282.0,695.0,-491.0,725.0
1245,27.0,-1003.0,288.0,687.0,-532.0,701.0
1246,-53.0,-1015.0,305.0,644.0,-524.0,738.0
1247,-126.0,-970.0,311.0,621.0,-563.0,827.0
1248,-149.0,-836.0,347.0,587.0,-641.0,919.0
1249,-247.0,-787.0,388.0,460.0,-712.0,1007.0
1250,-413.0,-760.0,367.0,327.0,-827.0,1140.0
1251,-570.0,-721.0,308.0,172.0,-1085.0,1317.0
1252,-696.0,-757.0,230.0,-49.0,-1504.0,1487.0
1253,-912.0,-974.0,-21.0,-400.0,-2808.0,1667.0
1254,1172.0,-1035.0,643.0,-431.0,-2822.0,143.0
1255,429.0,-975.0,381.0,637.0,167.0,77.0
1256,232.0,-995.0,384.0,417.0,271.0,270.0
1257,112.0,-1031.0,300.0,209.0,216.0,325.0
1258,36.0,-1099.0,206.0,71.0,130.0,265.0
1259,28.0,-1130.0,128.0,29.0,62.0,131.0
1260,92.0,-1132.0,94.0,43.0,-1.0,-16.0
1261,115.0,-1068.0,187.0,66.0,-7.0,-128.0
1262,146.0,-1052.0,177.0,2.0,0.0,-209.0
1263,197.0,-1040.0,111.0,-40.0,13.0,-268.0
1264,175.0,-1000.0,163.0,-11.0,41.0,-292.0
1265,163.0,-1008.0,180.0,-33.0,55.0,-315.0
1266,237.0,-1074.0,47.0,27.0,77.0,-305.0
1267,224.0,-934.0,187.0,-43.0,-9.0,-224.0
1268,231.0,-940.0,177.0,-67.0,-17.0,-220.0
1269,244.0,-937.0,160.0,-78.0,-24.0,-213.0
1270,231.0,-932.0,165.0,-70.0,-17.0,-197.0
1271,252.0,-934.0,164.0,-69.0,-23.0,-195.0
1272,265.0,-956.0,146.0,-71.0,-24.0,-181.0
1273,265.0,-935.0,154.0,-54.0,-18.0,-155.0
1274,267.0,-923.0,151.0,-41.0,-9.0,-125.0
1275,231.0,-971.0,159.0,21.0,36.0,-24.0
1276,247.0,-971.0,152.0,20.0,28.0,-37.0
1277,245.0,-964.0,162.0,23.0,27.0,-38.0
1278,242.0,-961.0,165.0,21.0,23.0,-37.0
1279,257.0,-942.0,169.0,26.0,15.0,-30.0
1280,255.0,-947.0,166.0,20.0,20.0,-21.0
1281,245.0,-955.0,166.0,19.0,27.0,-17.0
1282,238.0,-961.0,168.0,20.0,23.0,-20.0
1283,258.0,-955.0,162.0,23.0,12.0,-22.0
1284,266.0,-943.0,163.0,27.0,15.0,-13.0
1285,246.0,-945.0,171.0,25.0,27.0,-6.0
1286,257.0,-951.0,168.0,31.0,46.0,59.0
1287,219.0,-1065.0,170.0,1.0,117.0,63.0
1288,198.0,-1108.0,173.0,27.0,107.0,38.0
1289,164.0,-1165.0,179.0,73.0,89.0,1.0
1290,135.0,-1228.0,181.0,145.0,46.0,-38.0
1291,129.0,-1285.0,185.0,247.0,-26.0,-64.0
1292,79.0,-1333.0,196.0,411.0,-75.0,-39.0
1293,2.0,-1399.0,239.0,628.0,-139.0,63.0
1294,2.0,-1376.0,238.0,909.0,-206.0,185.0
1295,21.0,-1277.0,195.0,1157.0,-215.0,268.0
1296,56.0,-1036.0,225.0,1298.0,-220.0,278.0
1297,-9.0,-1024.0,263.0,1187.0,-195.0,182.0
1298,-72.0,-1028.0,264.0,1099.0,-255.0,93.0
1299,-124.0,-970.0,292.0,1052.0,-381.0,116.0
1300,-198.0,-869.0,317.0,1020.0,-521.0,238.0
1301,-245.0,-828.0,311.0,931.0,-723.0,344.0
1302,903.0,-800.0,-222.0,-807.0,-1799.0,1054.0
1303,98.0,-1101.0,427.0,256.0,114.0,-184.0
1304,189.0,-1160.0,207.0,51.0,160.0,-136.0
1305,129.0,-1106.0,213.0,48.0,205.0,-86.0
1306,65.0,-1013.0,254.0,60.0,210.0,-89.0
1307,2.0,-988.0,263.0,17.0,201.0,-123.0
1308,31.0,-994.0,233.0,-15.0,159.0,-175.0
1309,94.0,-954.0,240.0,-6.0,131.0,-202.0
1310,46.0,-991.0,219.0,-101.0,204.0,50.0
1311,60.0,-998.0,216.0,-85.0,183.0,30.0
1312,67.0,-992.0,216.0,-61.0,159.0,27.0
1313,67.0,-986.0,219.0,-42.0,139.0,29.0
1314,79.0,-967.0,222.0,-25.0,122.0,37.0
1315,68.0,-969.0,205.0,-9.0,115.0,50.0
1316,37.0,-979.0,222.0,12.0,107.0,34.0
1317,59.0,-987.0,223.0,18.0,84.0,6.0
1318,78.0,-983.0,228.0,23.0,75.0,0.0
1319,82.0,-992.0,225.0,22.0,74.0,6.0
1320,82.0,-991.0,221.0,21.0,72.0,13.0
1321,70.0,-973.0,224.0,23.0,68.0,17.0
1322,56.0,-957.0,231.0,-7.0,59.0,-37.0
1323,56.0,-958.0,236.0,-11.0,53.0,-50.0
1324,72.0,-962.0,233.0,-17.0,45.0,-62.0
1325,84.0,-963.0,230.0,-23.0,43.0,-66.0
1326,91.0,-963.0,227.0,-27.0,47.0,-66.0
1327,82.0,-963.0,223.0,-28.0,53.0,-61.0
1328,77.0,-951.0,229.0,-25.0,53.0,-60.0
1329,65.0,-940.0,231.0,-25.0,55.0,-63.0
1330,59.0,-926.0,236.0,-27.0,54.0,-70.0
1331,55.0,-916.0,243.0,-32.0,50.0,-77.0
1332,57.0,-904.0,244.0,-42.0,43.0,-79.0
1333,41.0,-966.0,234.0,-16.0,39.0,-91.0
1334,30.0,-203.0,-306.0,-766.0,331.0,691.0
1335,-71.0,-292.0,-362.0,-1037.0,412.0,894.0
1336,-121.0,-286.0,-390.0,-1193.0,434.0,1075.0
1337,-157.0,-297.0,-401.0,-1366.0,427.0,1123.0
1338,-190.0,-315.0,-397.0,-1531.0,385.0,1101.0
1339,-248.0,-315.0,-367.0,-1682.0,319.0,1085.0
1340,-346.0,-356.0,-325.0,-1856.0,215.0,1097.0
1341,-322.0,-438.0,-307.0,-2021.0,13.0,1149.0
1342,-264.0,-552.0,-287.0,-2156.0,-176.0,1213.0
1343,-188.0,-629.0,-264.0,-2243.0,-334.0,1243.0
1344,-143.0,-701.0,-230.0,-2320.0,-459.0,1253.0
1345,598.0,-1607.0,363.0,-2390.0,-588.0,991.0
1346,-138.0,-1353.0,898.0,-1130.0,520.0,273.0
1347,-31.0,-1071.0,580.0,-232.0,-117.0,35.0
1348,31.0,-1000.0,443.0,-81.0,-175.0,23.0
1349,62.0,-910.0,331.0,32.0,-180.0,0.0
1350,65.0,-869.0,251.0,81.0,-162.0,-34.0
1351,67.0,-877.0,173.0,101.0,-142.0,-60.0
1352,83.0,-871.0,128.0,136.0,-109.0,-75.0
1353,165.0,-876.0,75.0,168.0,-77.0,-78.0
1354,198.0,-856.0,-10.0,204.0,1.0,-98.0
1355,179.0,-801.0,-66.0,227.0,92.0,-137.0
1356,180.0,-819.0,-79.0,197.0,153.0,-163.0
1357,227.0,-860.0,-70.0,170.0,196.0,-181.0
1358,481.0,-1107.0,71.0,2410.0,-204.0,-1182.0
1359,109.0,-810.0,128.0,1552.0,-185.0,-321.0
1360,49.0,-938.0,206.0,31.0,107.0,-656.0
1361,55.0,-953.0,190.0,-11.0,93.0,-696.0
1362,111.0,-976.0,184.0,-53.0,81.0,-737.0
1363,184.0,-1022.0,120.0,-89.0,86.0,-744.0
1364,229.0,-997.0,126.0,-51.0,93.0,-675.0
1365,225.0,-988.0,134.0,-21.0,111.0,-571.0
1366,186.0,-989.0,132.0,-6.0,133.0,-487.0
1367,177.0,-958.0,178.0,18.0,130.0,-422.0
1368,171.0,-965.0,178.0,4.0,125.0,-371.0
1369,157.0,-966.0,161.0,-13.0,124.0,-335.0
1370,203.0,-992.0,148.0,4.0,91.0,-213.0
1371,203.0,-1032.0,118.0,17.0,92.0,-180.0
1372,183.0,-1012.0,137.0,72.0,93.0,-151.0
1373,230.0,-1012.0,98.0,113.0,76.0,-118.0
1374,262.0,-974.0,128.0,194.0,59.0,-47.0
1375,255.0,-959.0,143.0,245.0,59.0,40.0
1376,204.0,-949.0,172.0,281.0,86.0,112.0
1377,185.0,-956.0,178.0,293.0,101.0,157.0
1378,219.0,-965.0,161.0,309.0,107.0,212.0
1379,9.0,-974.0,199.0,372.0,207.0,625.0
1380,140.0,-990.0,246.0,162.0,133.0,-308.0
1381,169.0,-987.0,246.0,183.0,126.0,-309.0
1382,172.0,-1000.0,244.0,196.0,124.0,-298.0
1383,176.0,-980.0,243.0,220.0,118.0,-301.0
1384,209.0,-985.0,247.0,248.0,112.0,-315.0
1385,171.0,-948.0,255.0,294.0,128.0,-348.0
1386,54.0,-932.0,267.0,311.0,139.0,-366.0
1387,28.0,-948.0,278.0,308.0,100.0,-416.0
1388,123.0,-950.0,260.0,313.0,34.0,-448.0
1389,173.0,-909.0,269.0,330.0,19.0,-460.0
1390,231.0,-903.0,260.0,316.0,33.0,-444.0
1391,152.0,-963.0,283.0,269.0,106.0,-443.0
1392,133.0,-1327.0,426.0,1913.0,712.0,-1423.0
1393,95.0,-1346.0,423.0,2081.0,651.0,-1383.0
1394,179.0,-1295.0,483.0,2260.0,520.0,-1304.0
1395,156.0,-1372.0,527.0,2343.0,507.0,-1207.0
1396,166.0,-1341.0,495.0,2518.0,364.0,-1035.0
1397,364.0,-1212.0,429.0,2674.0,101.0,-884.0
1398,467.0,-1209.0,394.0,2685.0,4.0,-824.0
1399,482.0,-1256.0,355.0,2697.0,-1.0,-833.0
1400,451.0,-1221.0,319.0,2813.0,5.0,-869.0
1401,436.0,-1132.0,262.0,2952.0,7.0,-923.0
1402,361.0,-1052.0,226.0,3043.0,66.0,-979.0
1403,2.0,-472.0,-318.0,-2785.0,1376.0,1469.0
1404,614.0,-1761.0,482.0,-3210.0,-330.0,1141.0
1405,645.0,-1724.0,510.0,-3116.0,-150.0,1086.0
1406,644.0,-1669.0,521.0,-3037.0,66.0,1016.0
1407,640.0,-1615.0,524.0,-2977.0,286.0,944.0
1408,660.0,-1575.0,524.0,-2932.0,486.0,907.0
1409,633.0,-1580.0,559.0,-2896.0,693.0,863.0
1410,625.0,-1562.0,626.0,-2825.0,840.0,756.0
1411,541.0,-1532.0,722.0,-2722.0,961.0,601.0
1412,361.0,-1529.0,849.0,-2588.0,1032.0,444.0
1413,199.0,-1578.0,965.0,-2399.0,981.0,306.0
1414,138.0,-1533.0,1046.0,-2087.0,829.0,176.0
1415,13.0,-882.0,421.0,365.0,-517.0,-124.0
1416,410.0,-906.0,699.0,1793.0,-201.0,-696.0
1417,318.0,-850.0,559.0,1430.0,166.0,-688.0
1418,107.0,-972.0,96.0,1113.0,360.0,-651.0
1419,14.0,-1014.0,-72.0,944.0,293.0,-607.0
1420,-51.0,-947.0,17.0,903.0,81.0,-582.0
1421,18.0,-959.0,60.0,850.0,-123.0,-614.0
1422,111.0,-915.0,98.0,816.0,-186.0,-646.0
1423,190.0,-900.0,110.0,766.0,-142.0,-642.0
1424,227.0,-917.0,86.0,688.0,-54.0,-617.0
1425,188.0,-930.0,97.0,617.0,46.0,-577.0
1426,227.0,-904.0,133.0,569.0,54.0,-527.0
1427,138.0,-962.0,171.0,176.0,116.0,-292.0
1428,159.0,-978.0,158.0,146.0,97.0,-296.0
1429,184.0,-1005.0,100.0,129.0,86.0,-281.0
1430,220.0,-994.0,99.0,168.0,61.0,-244.0
1431,256.0,-965.0,118.0,218.0,29.0,-173.0
1432,256.0,-981.0,111.0,238.0,21.0,-81.0
1433,246.0,-968.0,121.0,276.0,20.0,2.0
1434,194.0,-948.0,148.0,308.0,29.0,71.0
1435,170.0,-955.0,164.0,297.0,36.0,80.0
1436,111.0,-982.0,174.0,260.0,68.0,34.0
1437,231.0,-952.0,179.0,115.0,146.0,-121.0
1438,224.0,-932.0,199.0,120.0,154.0,-111.0
1439,204.0,-923.0,203.0,123.0,173.0,-104.0
1440,199.0,-929.0,208.0,122.0,177.0,-105.0
1441,193.0,-957.0,210.0,116.0,176.0,-107.0
1442,181.0,-965.0,210.0,125.0,167.0,-118.0
1443,198.0,-970.0,194.0,138.0,144.0,-132.0
1444,218.0,-980.0,192.0,159.0,120.0,-132.0
1445,245.0,-965.0,194.0,190.0,101.0,-128.0
1446,234.0,-976.0,204.0,204.0,109.0,-130.0
1447,234.0,-963.0,208.0,218.0,113.0,-143.0
1448,252.0,-983.0,244.0,214.0,76.0,-347.0
1449,301.0,-1170.0,323.0,611.0,479.0,-537.0
1450,269.0,-1210.0,334.0,673.0,483.0,-543.0
1451,246.0,-1258.0,344.0,754.0,473.0,-541.0
1452,257.0,-1285.0,340.0,852.0,443.0,-556.0
1453,261.0,-1319.0,333.0,954.0,416.0,-585.0
1454,247.0,-1341.0,331.0,1066.0,404.0,-634.0
1455,203.0,-1375.0,332.0,1182.0,392.0,-679.0
1456,163.0,-1371.0,327.0,1322.0,355.0,-725.0
1457,108.0,-1357.0,301.0,1465.0,317.0,-772.0
1458,492.0,-416.0,-152.0,810.0,70.0,-121.0
1459,364.0,-447.0,-173.0,481.0,370.0,85.0
1460,373.0,-319.0,-249.0,233.0,559.0,261.0
1461,130.0,-593.0,-255.0,-167.0,985.0,402.0
1462,-181.0,-618.0,-223.0,-254.0,1258.0,581.0
1463,-207.0,-428.0,-263.0,-231.0,1221.0,767.0
1464,-284.0,-271.0,-298.0,-387.0,1212.0,945.0
1465,-327.0,-276.0,-339.0,-687.0,1136.0,1164.0
1466,-350.0,-294.0,-353.0,-963.0,1012.0,1339.0
1467,-316.0,-313.0,-358.0,-1206.0,856.0,1463.0
1468,-289.0,-333.0,-348.0,-1434.0,712.0,1562.0
1469,-253.0,-371.0,-330.0,-1658.0,571.0,1641.0
1470,-204.0,-379.0,-317.0,-1869.0,424.0,1685.0
1471,-181.0,-367.0,-302.0,-2114.0,286.0,1672.0
1472,488.0,-1600.0,312.0,-3284.0,-379.0,1408.0
1473,562.0,-1587.0,377.0,-3252.0,-202.0,1411.0
1474,584.0,-1561.0,457.0,-3216.0,-28.0,1362.0
1475,537.0,-1566.0,545.0,-3198.0,86.0,1261.0
1476,556.0,-1624.0,619.0,-3160.0,70.0,1156.0
1477,457.0,-1750.0,896.0,-2853.0,-35.0,843.0
1478,439.0,-1714.0,1046.0,-2526.0,-172.0,661.0
1479,506.0,-1538.0,1191.0,-2212.0,-327.0,507.0
1480,640.0,-1379.0,1298.0,-1983.0,-425.0,441.0
1481,831.0,-1366.0,1369.0,-1783.0,-425.0,430.0
1482,958.0,-1322.0,1449.0,-1497.0,-291.0,386.0
1483,911.0,-1261.0,1542.0,-1147.0,-113.0,265.0
1484,779.0,-1250.0,1634.0,-778.0,-11.0,136.0
1485,691.0,-1217.0,1655.0,-346.0,-46.0,-40.0
1486,67.0,-1088.0,-165.0,792.0,-212.0,-797.0
1487,-49.0,-884.0,331.0,547.0,47.0,398.0
1488,47.0,-911.0,244.0,374.0,28.0,209.0
1489,53.0,-930.0,244.0,257.0,51.0,69.0
1490,106.0,-948.0,202.0,162.0,78.0,-32.0
1491,110.0,-939.0,196.0,106.0,124.0,-82.0
1492,65.0,-929.0,210.0,60.0,146.0,-112.0
1493,82.0,-936.0,189.0,12.0,127.0,-156.0
1494,86.0,-928.0,194.0,-19.0,108.0,-185.0
1495,104.0,-932.0,189.0,-45.0,90.0,-198.0
1496,116.0,-978.0,174.0,148.0,189.0,88.0
1497,139.0,-996.0,167.0,162.0,163.0,101.0
1498,176.0,-1011.0,141.0,185.0,147.0,140.0
1499,199.0,-980.0,152.0,235.0,143.0,218.0
1500,186.0,-937.0,174.0,274.0,153.0,319.0
1501,147.0,-937.0,187.0,287.0,165.0,408.0
1502,118.0,-930.0,199.0,290.0,159.0,459.0
1503,37.0,-956.0,200.0,274.0,167.0,460.0
1504,53.0,-945.0,221.0,260.0,127.0,403.0
1505,27.0,-961.0,219.0,231.0,111.0,347.0
1506,73.0,-990.0,211.0,87.0,-1.0,68.0
1507,73.0,-983.0,211.0,90.0,-8.0,46.0
1508,79.0,-979.0,223.0,87.0,-11.0,14.0
1509,65.0,-981.0,221.0,74.0,-2.0,-14.0
1510,75.0,-980.0,225.0,66.0,0.0,-43.0
1511,111.0,-970.0,223.0,62.0,-4.0,-58.0
1512,116.0,-969.0,220.0,59.0,0.0,-49.0
1513,90.0,-967.0,217.0,60.0,10.0,-38.0
1514,69.0,-952.0,226.0,65.0,7.0,-38.0
1515,114.0,-947.0,221.0,62.0,-19.0,-43.0
1516,129.0,-944.0,223.0,62.0,-23.0,-23.0
1517,100.0,-941.0,230.0,57.0,-11.0,1.0
1518,63.0,-946.0,240.0,49.0,-8.0,5.0
1519,69.0,-956.0,238.0,80.0,-68.0,-5.0
1520,75.0,-966.0,235.0,70.0,-78.0,-20.0
1521,112.0,-966.0,226.0,64.0,-91.0,-26.0
1522,128.0,-948.0,228.0,62.0,-87.0,-14.0
1523,123.0,-946.0,229.0,54.0,-70.0,2.0
1524,104.0,-946.0,236.0,44.0,-53.0,12.0
1525,114.0,-939.0,234.0,31.0,-48.0,14.0
1526,106.0,-946.0,235.0,-9.0,-13.0,16.0
1527,51.0,-961.0,236.0,-34.0,-7.0,-29.0
1528,84.0,-981.0,233.0,-13.0,10.0,-3.0
1529,95.0,-1013.0,231.0,-16.0,-1.0,-1.0
1530,80.0,-1045.0,219.0,-13.0,-5.0,7.0
1531,73.0,-1047.0,224.0,9.0,-27.0,23.0
1532,70.0,-1053.0,229.0,30.0,-53.0,34.0
1533,22.0,-1060.0,245.0,49.0,-76.0,38.0
1534,7.0,-1083.0,246.0,66.0,-135.0,25.0
1535,-4.0,-1081.0,246.0,92.0,-199.0,23.0
1536,-7.0,-1111.0,250.0,112.0,-261.0,11.0
1537,20.0,-1111.0,245.0,146.0,-321.0,11.0
1538,22.0,-1175.0,228.0,172.0,-359.0,46.0
1539,-436.0,-852.0,228.0,277.0,-1706.0,1385.0
1540,-453.0,-869.0,173.0,128.0,-2100.0,1465.0
1541,-613.0,-933.0,69.0,-20.0,-2515.0,1521.0
1542,-719.0,-997.0,-62.0,-104.0,-3132.0,1521.0
1543,-453.0,-1000.0,-245.0,-128.0,-3969.0,1371.0
1544,-30.0,-1034.0,-417.0,-129.0,-4625.0,1177.0
1545,103.0,-1027.0,-501.0,-64.0,-4845.0,1075.0
1546,182.0,-956.0,-554.0,11.0,-4931.0,984.0
1547,242.0,-929.0,-599.0,18.0,-4948.0,881.0
1548,206.0,-908.0,-604.0,13.0,-4875.0,835.0
1549,164.0,-844.0,-595.0,2.0,-4822.0,866.0
1550,403.0,-1030.0,-327.0,-827.0,-3938.0,1318.0
1551,393.0,-1075.0,-268.0,-917.0,-3903.0,1290.0
1552,432.0,-1113.0,-235.0,-967.0,-3919.0,1243.0
1553,476.0,-1125.0,-200.0,-970.0,-3957.0,1140.0
1554,348.0,-1149.0,-131.0,-956.0,-3986.0,956.0
1555,320.0,-1145.0,-87.0,-901.0,-4157.0,777.0
1556,387.0,-1108.0,-72.0,-824.0,-4381.0,659.0
1557,451.0,-1149.0,-50.0,-774.0,-4542.0,504.0
1558,500.0,-1072.0,12.0,-672.0,-4652.0,308.0
1559,545.0,-988.0,78.0,-605.0,-4708.0,202.0
1560,698.0,-1033.0,130.0,-581.0,-4692.0,199.0
1561,421.0,-1071.0,63.0,683.0,-67.0,-134.0
1562,77.0,-952.0,234.0,-51.0,-43.0,-252.0
1563,67.0,-967.0,224.0,-66.0,-66.0,-275.0
1564,110.0,-975.0,213.0,-75.0,-95.0,-313.0
1565,154.0,-997.0,193.0,-74.0,-103.0,-328.0
1566,159.0,-993.0,186.0,-57.0,-87.0,-310.0
1567,134.0,-970.0,213.0,-34.0,-78.0,-280.0
1568,147.0,-969.0,213.0,-34.0,-89.0,-264.0
1569,163.0,-963.0,214.0,-38.0,-95.0,-251.0
1570,172.0,-959.0,214.0,-43.0,-89.0,-225.0
1571,159.0,-972.0,193.0,-51.0,-75.0,-200.0
1572,160.0,-980.0,191.0,-41.0,-70.0,-180.0
1573,147.0,-964.0,204.0,-5.0,67.0,46.0
1574,103.0,-945.0,222.0,-15.0,112.0,263.0
1575,118.0,-947.0,215.0,-29.0,94.0,236.0
1576,103.0,-936.0,229.0,-40.0,87.0,210.0
1577,104.0,-945.0,214.0,-62.0,80.0,182.0
1578,81.0,-959.0,205.0,-75.0,74.0,157.0
1579,103.0,-966.0,203.0,-75.0,54.0,129.0
1580,121.0,-971.0,195.0,-74.0,44.0,112.0
1581,134.0,-984.0,179.0,-72.0,45.0,110.0
1582,127.0,-987.0,174.0,-61.0,57.0,114.0
1583,131.0,-978.0,184.0,-43.0,60.0,116.0
1584,128.0,-970.0,194.0,-33.0,69.0,120.0
1585,86.0,-980.0,198.0,-32.0,125.0,61.0
1586,95.0,-954.0,195.0,47.0,119.0,-24.0
1587,75.0,-935.0,209.0,52.0,117.0,-17.0
1588,83.0,-940.0,200.0,47.0,105.0,-22.0
1589,100.0,-944.0,194.0,46.0,97.0,-29.0
1590,70.0,-960.0,203.0,52.0,105.0,-34.0
1591,89.0,-994.0,195.0,52.0,106.0,-56.0
1592,87.0,-1009.0,174.0,60.0,117.0,-73.0
1593,105.0,-1014.0,185.0,82.0,118.0,-84.0
1594,108.0,-989.0,174.0,103.0,122.0,-83.0
1595,90.0,-945.0,211.0,123.0,121.0,-79.0
1596,94.0,-947.0,214.0,108.0,115.0,-88.0
1597,95.0,-973.0,217.0,23.0,60.0,-35.0
1598,104.0,-977.0,207.0,8.0,87.0,19.0
1599,111.0,-981.0,209.0,21.0,84.0,19.0
1600,105.0,-982.0,206.0,33.0,84.0,19.0
1601,93.0,-978.0,215.0,46.0,85.0,19.0
1602,77.0,-976.0,218.0,53.0,89.0,5.0
1603,83.0,-981.0,215.0,58.0,85.0,-21.0
1604,99.0,-991.0,211.0,63.0,79.0,-38.0
1605,113.0,-1006.0,202.0,75.0,74.0,-43.0
1606,134.0,-1001.0,205.0,100.0,65.0,-31.0
1607,-85.0,-1624.0,225.0,1627.0,-311.0,14.0
1608,-86.0,-1714.0,221.0,1744.0,-356.0,-195.0
1609,-220.0,-1680.0,211.0,1943.0,-372.0,-272.0
1610,-313.0,-1617.0,159.0,2138.0,-461.0,-235.0
1611,-224.0,-1424.0,132.0,2355.0,-628.0,-184.0
1612,-201.0,-1168.0,96.0,2473.0,-658.0,-143.0
1613,-224.0,-813.0,90.0,2445.0,-688.0,26.0
1614,-429.0,-547.0,133.0,2194.0,-760.0,204.0
1615,-408.0,-384.0,80.0,1825.0,-1124.0,386.0
1616,-274.0,-210.0,-99.0,1390.0,-1519.0,555.0
1617,-173.0,-313.0,-620.0,791.0,-1645.0,710.0
1618,202.0,-1041.0,-208.0,-2045.0,-1081.0,1414.0
1619,640.0,-1280.0,361.0,-1891.0,-942.0,348.0
1620,700.0,-1249.0,415.0,-1828.0,-744.0,259.0
1621,645.0,-1267.0,507.0,-1778.0,-437.0,177.0
1622,575.0,-1265.0,608.0,-1683.0,-116.0,142.0
1623,498.0,-1262.0,680.0,-1558.0,173.0,166.0
1624,376.0,-1211.0,699.0,-1404.0,428.0,163.0
1625,249.0,-1124.0,698.0,-1260.0,586.0,134.0
1626,96.0,-1139.0,660.0,-1175.0,641.0,101.0
1627,-9.0,-1135.0,614.0,-1053.0,585.0,62.0
1628,-98.0,-1157.0,569.0,-905.0,446.0,5.0
1629,-156.0,-1088.0,516.0,-706.0,236.0,-79.0
1630,-172.0,-814.0,335.0,578.0,-87.0,-40.0
1631,-237.0,-920.0,188.0,422.0,-175.0,-92.0
1632,-286.0,-1077.0,10.0,358.0,-261.0,-162.0
1633,-360.0,-1278.0,-234.0,405.0,-266.0,-314.0
1634,-436.0,-1463.0,-464.0,592.0,-245.0,-588.0
1635,-308.0,-1538.0,-624.0,899.0,-303.0,-923.0
1636,-152.0,-1529.0,-644.0,1231.0,-336.0,-1163.0
1637,-67.0,-1274.0,-423.0,1511.0,-277.0,-1251.0
1638,81.0,-1140.0,-121.0,1511.0,-213.0,-1200.0
1639,266.0,-1134.0,95.0,1372.0,-134.0,-1116.0
1640,-48.0,-989.0,-35.0,1199.0,142.0,-1104.0
1641,22.0,-931.0,212.0,294.0,163.0,-223.0
1642,61.0,-944.0,199.0,217.0,136.0,-296.0
1643,109.0,-948.0,189.0,154.0,120.0,-356.0
1644,158.0,-947.0,160.0,104.0,111.0,-384.0
1645,146.0,-955.0,171.0,75.0,118.0,-381.0
1646,118.0,-966.0,174.0,51.0,120.0,-388.0
1647,118.0,-962.0,168.0,30.0,109.0,-417.0
1648,125.0,-962.0,155.0,12.0,100.0,-446.0
1649,145.0,-960.0,163.0,1.0,99.0,-467.0
1650,163.0,-960.0,165.0,-15.0,102.0,-475.0
1651,193.0,-959.0,171.0,103.0,54.0,-131.0
1652,200.0,-952.0,175.0,89.0,54.0,-127.0
1653,191.0,-962.0,174.0,70.0,62.0,-127.0
1654,196.0,-958.0,176.0,51.0,72.0,-135.0
1655,187.0,-960.0,181.0,33.0,79.0,-140.0
1656,176.0,-964.0,179.0,16.0,83.0,-151.0
1657,174.0,-966.0,188.0,3.0,80.0,-165.0
1658,185.0,-977.0,167.0,-22.0,71.0,-184.0
1659,228.0,-965.0,160.0,-25.0,58.0,-194.0
1660,249.0,-963.0,157.0,-25.0,59.0,-173.0
1661,238.0,-964.0,163.0,-25.0,70.0,-137.0
1662,414.0,-887.0,166.0,434.0,53.0,521.0
1663,207.0,-993.0,220.0,117.0,50.0,-324.0
1664,211.0,-975.0,229.0,126.0,64.0,-281.0
1665,161.0,-982.0,241.0,129.0,91.0,-245.0
1666,165.0,-992.0,239.0,116.0,98.0,-246.0
1667,169.0,-1008.0,238.0,104.0,106.0,-248.0
1668,163.0,-1009.0,238.0,101.0,119.0,-251.0
1669,143.0,-1003.0,251.0,98.0,120.0,-259.0
1670,157.0,-1027.0,252.0,95.0,101.0,-277.0
1671,209.0,-1029.0,247.0,135.0,80.0,-327.0
1672,209.0,-1034.0,264.0,197.0,39.0,-387.0
1673,214.0,-956.0,257.0,282.0,6.0,-425.0
1674,327.0,-1150.0,281.0,973.0,56.0,-853.0
1675,306.0,-1164.0,289.0,1021.0,124.0,-886.0
1676,263.0,-1231.0,301.0,1070.0,179.0,-908.0
1677,271.0,-1246.0,291.0,1167.0,189.0,-928.0
1678,297.0,-1269.0,280.0,1263.0,200.0,-955.0
1679,317.0,-1297.0,271.0,1356.0,224.0,-1008.0
1680,311.0,-1328.0,260.0,1452.0,265.0,-1085.0
1681,333.0,-1352.0,253.0,1561.0,297.0,-1183.0
1682,352.0,-1398.0,243.0,1671.0,355.0,-1324.0
1683,375.0,-1442.0,221.0,1802.0,444.0,-1478.0
1684,287.0,-636.0,93.0,2923.0,368.0,-1096.0
1685,43.0,-235.0,128.0,2839.0,486.0,-1254.0
1686,-114.0,331.0,19.0,2514.0,400.0,-1055.0
1687,-156.0,1051.0,-65.0,1692.0,108.0,-555.0
1688,243.0,675.0,-232.0,-30.0,-218.0,-8.0
1689,598.0,217.0,-361.0,-1307.0,-137.0,473.0
1690,356.0,-16.0,-409.0,-2019.0,445.0,820.0
1691,100.0,-344.0,-319.0,-2505.0,884.0,1204.0
1692,115.0,-614.0,-264.0,-2631.0,1051.0,1422.0
1693,130.0,-457.0,-252.0,-2410.0,1258.0,1381.0
1694,-9.0,-253.0,-261.0,-2371.0,1558.0,1347.0
1695,220.0,-1388.0,142.0,-3569.0,-774.0,1334.0
1696,361.0,-1472.0,201.0,-3518.0,-812.0,1299.0
1697,404.0,-1552.0,278.0,-3450.0,-747.0,1238.0
1698,356.0,-1610.0,358.0,-3366.0,-645.0,1164.0
1699,299.0,-1623.0,418.0,-3273.0,-577.0,1130.0
1700,238.0,-1628.0,452.0,-3211.0,-537.0,1140.0
1701,182.0,-1697.0,489.0,-3198.0,-530.0,1120.0
1702,298.0,-1743.0,495.0,-3143.0,-584.0,1104.0
1703,488.0,-1738.0,493.0,-3033.0,-556.0,1113.0
1704,648.0,-1706.0,498.0,-2906.0,-402.0,1111.0
1705,822.0,-1595.0,503.0,-2768.0,-176.0,1066.0
1706,-71.0,-1268.0,799.0,-84.0,556.0,-235.0
1707,348.0,-767.0,344.0,892.0,-187.0,229.0
1708,-114.0,-954.0,327.0,550.0,165.0,146.0
1709,-10.0,-1026.0,104.0,414.0,135.0,-108.0
1710,4.0,-993.0,160.0,436.0,113.0,-244.0
1711,73.0,-937.0,187.0,434.0,36.0,-317.0
1712,186.0,-939.0,148.0,381.0,2.0,-341.0
1713,219.0,-956.0,112.0,347.0,24.0,-282.0
1714,134.0,-958.0,161.0,357.0,67.0,-195.0
1715,136.0,-932.0,196.0,350.0,50.0,-177.0
1716,168.0,-928.0,178.0,303.0,40.0,-166.0
1717,151.0,-957.0,157.0,260.0,68.0,-136.0
1718,174.0,-948.0,193.0,273.0,62.0,144.0
1719,96.0,-994.0,214.0,169.0,55.0,72.0
1720,113.0,-987.0,207.0,163.0,54.0,36.0
1721,68.0,-978.0,226.0,161.0,70.0,12.0
1722,71.0,-975.0,231.0,143.0,64.0,-35.0
1723,85.0,-974.0,230.0,120.0,53.0,-79.0
1724,126.0,-964.0,226.0,108.0,41.0,-108.0
1725,72.0,-1003.0,228.0,92.0,56.0,-120.0
1726,95.0,-1010.0,221.0,91.0,36.0,-157.0
1727,146.0,-991.0,213.0,107.0,13.0,-175.0
1728,166.0,-968.0,218.0,121.0,18.0,-160.0
1729,153.0,-968.0,234.0,123.0,45.0,-140.0
1730,48.0,-954.0,273.0,280.0,186.0,-160.0
1731,85.0,-1004.0,316.0,404.0,101.0,-445.0
1732,128.0,-1013.0,313.0,430.0,53.0,-457.0
1733,126.0,-1032.0,325.0,463.0,29.0,-467.0
1734,161.0,-1029.0,321.0,501.0,-1.0,-469.0
1735,214.0,-1054.0,313.0,532.0,-18.0,-477.0
1736,263.0,-1031.0,314.0,579.0,-12.0,-477.0
1737,217.0,-1044.0,322.0,603.0,27.0,-472.0
1738,162.0,-1103.0,335.0,617.0,43.0,-460.0
1739,231.0,-1127.0,332.0,654.0,14.0,-456.0
1740,299.0,-1129.0,327.0,710.0,27.0,-461.0
1741,290.0,-1127.0,341.0,759.0,76.0,-488.0
1742,455.0,-1262.0,308.0,1586.0,401.0,-1180.0
1743,308.0,-968.0,473.0,2498.0,203.0,-521.0
1744,294.0,-856.0,444.0,2508.0,168.0,-519.0
1745,202.0,-665.0,423.0,2472.0,136.0,-525.0
1746,128.0,-440.0,400.0,2333.0,38.0,-427.0
1747,247.0,-269.0,230.0,2083.0,-149.0,-204.0
1748,502.0,63.0,-13.0,1719.0,-261.0,9.0
1749,644.0,296.0,-230.0,1007.0,-25.0,64.0
1750,670.0,177.0,-266.0,98.0,439.0,61.0
1751,404.0,177.0,-377.0,-644.0,1050.0,110.0
1752,-141.0,-119.0,-374.0,-1312.0,1601.0,448.0
1753,-258.0,-214.0,-335.0,-1662.0,1615.0,835.0
1754,201.0,-1204.0,-42.0,-3655.0,-939.0,1412.0
1755,765.0,-1579.0,378.0,-2885.0,6.0,834.0
1756,616.0,-1731.0,476.0,-2731.0,247.0,703.0
1757,556.0,-1455.0,594.0,-2407.0,275.0,534.0
1758,458.0,-1799.0,629.0,-2285.0,220.0,361.0
1759,435.0,-725.0,782.0,-1890.0,74.0,164.0
1760,400.0,-1548.0,664.0,-2769.0,42.0,383.0
1761,334.0,-1427.0,795.0,-1962.0,-45.0,144.0
1762,462.0,-1273.0,763.0,-1470.0,-168.0,-125.0
1763,495.0,-1253.0,763.0,-1411.0,-151.0,-195.0
1764,91.0,-1536.0,-946.0,2769.0,186.0,-1700.0
1765,173.0,-959.0,144.0,100.0,57.0,-198.0
1766,205.0,-966.0,119.0,77.0,66.0,-216.0
1767,245.0,-951.0,103.0,81.0,85.0,-201.0
1768,202.0,-931.0,132.0,105.0,106.0,-154.0
1769,175.0,-920.0,154.0,110.0,96.0,-136.0
1770,186.0,-925.0,153.0,94.0,71.0,-140.0
1771,215.0,-957.0,125.0,77.0,58.0,-136.0
1772,215.0,-963.0,138.0,84.0,62.0,-120.0
1773,205.0,-954.0,147.0,92.0,64.0,-103.0
1774,214.0,-956.0,142.0,89.0,59.0,-90.0
1775,199.0,-952.0,133.0,94.0,61.0,-74.0
1776,187.0,-974.0,162.0,44.0,71.0,-96.0
1777,209.0,-977.0,152.0,22.0,64.0,-124.0
1778,232.0,-980.0,146.0,10.0,59.0,-135.0
1779,238.0,-981.0,150.0,6.0,62.0,-130.0
1780,249.0,-983.0,148.0,2.0,64.0,-122.0
1781,246.0,-981.0,144.0,1.0,71.0,-112.0
1782,261.0,-979.0,145.0,0.0,74.0,-104.0
1783,244.0,-985.0,138.0,-2.0,86.0,-88.0
1784,212.0,-994.0,144.0,3.0,94.0,-85.0
1785,219.0,-983.0,139.0,9.0,86.0,-103.0
1786,191.0,-968.0,157.0,18.0,83.0,-117.0
1787,228.0,-949.0,159.0,41.0,139.0,64.0
1788,232.0,-947.0,160.0,41.0,140.0,58.0
1789,230.0,-961.0,155.0,40.0,139.0,56.0
1790,220.0,-954.0,157.0,52.0,140.0,52.0
1791,199.0,-942.0,176.0,61.0,138.0,49.0
1792,192.0,-946.0,179.0,51.0,128.0,35.0
1793,196.0,-936.0,176.0,43.0,113.0,20.0
1794,204.0,-915.0,178.0,38.0,100.0,13.0
1795,179.0,-913.0,187.0,28.0,95.0,9.0
1796,213.0,-925.0,181.0,11.0,74.0,-4.0
1797,235.0,-947.0,170.0,-2.0,68.0,-4.0
1798,283.0,-1010.0,142.0,10.0,147.0,90.0
1799,231.0,-1049.0,148.0,58.0,164.0,124.0
1800,232.0,-1038.0,156.0,82.0,157.0,122.0
1801,222.0,-1043.0,158.0,99.0,148.0,119.0
1802,181.0,-1027.0,179.0,99.0,149.0,103.0
1803,176.0,-1030.0,178.0,75.0,138.0,67.0
1804,168.0,-1032.0,175.0,56.0,129.0,29.0
1805,166.0,-1031.0,181.0,46.0,115.0,-11.0
1806,66.0,-1327.0,285.0,1049.0,292.0,-606.0
1807,35.0,-1340.0,281.0,1157.0,259.0,-600.0
1808,21.0,-1303.0,279.0,1286.0,230.0,-607.0
1809,-59.0,-1270.0,307.0,1372.0,234.0,-618.0
1810,-206.0,-1210.0,306.0,1444.0,185.0,-607.0
1811,-278.0,-1099.0,292.0,1510.0,34.0,-568.0
1812,-410.0,-984.0,297.0,1518.0,-120.0,-504.0
1813,-432.0,-852.0,281.0,1486.0,-360.0,-380.0
1814,-411.0,-769.0,281.0,1373.0,-597.0,-211.0
1815,-368.0,-750.0,269.0,1216.0,-828.0,-16.0
1816,-351.0,-651.0,139.0,1059.0,-1069.0,177.0
1817,-118.0,-963.0,48.0,-356.0,-1383.0,1629.0
1818,490.0,-1044.0,64.0,-172.0,-2297.0,1380.0
1819,508.0,-1038.0,58.0,-178.0,-2201.0,1360.0
1820,504.0,-1005.0,37.0,-175.0,-2134.0,1314.0
1821,489.0,-962.0,22.0,-183.0,-2139.0,1191.0
1822,466.0,-930.0,29.0,-213.0,-2231.0,1047.0
1823,521.0,-953.0,36.0,-240.0,-2396.0,945.0
1824,598.0,-932.0,50.0,-219.0,-2572.0,831.0
1825,705.0,-899.0,64.0,-201.0,-2746.0,683.0
1826,804.0,-913.0,85.0,-202.0,-2884.0,509.0
1827,828.0,-888.0,127.0,-180.0,-2967.0,334.0
1828,886.0,-882.0,151.0,-154.0,-3027.0,211.0
1829,543.0,-858.0,257.0,-43.0,-87.0,4.0
1830,160.0,-1000.0,246.0,-218.0,114.0,-14.0
1831,55.0,-1004.0,275.0,-209.0,152.0,-43.0
1832,20.0,-1020.0,256.0,-222.0,146.0,-110.0
1833,57.0,-1009.0,229.0,-221.0,118.0,-184.0
1834,102.0,-977.0,239.0,-210.0,93.0,-229.0
1835,119.0,-986.0,237.0,-222.0,92.0,-242.0
1836,209.0,-1011.0,188.0,-228.0,67.0,-241.0
1837,273.0,-1027.0,169.0,-194.0,72.0,-196.0
1838,207.0,-1030.0,158.0,-146.0,110.0,-121.0
1839,135.0,-1033.0,190.0,-114.0,119.0,-86.0
1840,150.0,-956.0,203.0,-23.0,-50.0,115.0
1841,140.0,-941.0,204.0,-22.0,-61.0,131.0
1842,130.0,-964.0,209.0,-44.0,-59.0,102.0
1843,118.0,-974.0,198.0,-65.0,-51.0,64.0
1844,100.0,-970.0,211.0,-70.0,-49.0,34.0
1845,104.0,-965.0,208.0,-82.0,-53.0,-9.0
1846,91.0,-977.0,203.0,-91.0,-50.0,-46.0
1847,114.0,-991.0,184.0,-91.0,-66.0,-81.0
1848,143.0,-985.0,179.0,-68.0,-85.0,-92.0
1849,161.0,-988.0,167.0,-43.0,-97.0,-77.0
1850,165.0,-976.0,179.0,-14.0,-107.0,-48.0
1851,160.0,-960.0,194.0,23.0,-77.0,42.0
1852,149.0,-965.0,200.0,84.0,-40.0,74.0
1853,160.0,-977.0,199.0,82.0,-30.0,91.0
1854,126.0,-1015.0,178.0,82.0,-4.0,108.0
1855,150.0,-1002.0,178.0,120.0,-4.0,120.0
1856,136.0,-980.0,204.0,159.0,3.0,149.0
1857,132.0,-1011.0,183.0,165.0,13.0,159.0
1858,143.0,-981.0,202.0,202.0,22.0,174.0
1859,108.0,-992.0,219.0,216.0,40.0,187.0
1860,112.0,-1011.0,202.0,222.0,42.0,180.0
1861,103.0,-1009.0,214.0,250.0,40.0,188.0
1862,86.0,-1030.0,213.0,261.0,36.0,196.0
1863,57.0,-1363.0,173.0,1626.0,-950.0,798.0
1864,139.0,-1352.0,129.0,1637.0,-1027.0,682.0
1865,173.0,-1264.0,110.0,1682.0,-1052.0,715.0
1866,121.0,-1168.0,140.0,1682.0,-1036.0,719.0
1867,-85.0,-781.0,156.0,1446.0,-1092.0,825.0
1868,-219.0,-683.0,137.0,1266.0,-1167.0,924.0
1869,-324.0,-644.0,40.0,1020.0,-1327.0,1053.0
1870,-465.0,-573.0,-137.0,757.0,-1563.0,1163.0
1871,-505.0,-629.0,-243.0,450.0,-1955.0,1251.0
1872,-449.0,-650.0,-322.0,224.0,-2442.0,1268.0
1873,-193.0,-686.0,-360.0,51.0,-2923.0,1268.0
1874,212.0,-653.0,-426.0,-62.0,-3214.0,1225.0
1875,291.0,-647.0,-427.0,-201.0,-3100.0,1160.0
1876,402.0,-1043.0,-12.0,-1206.0,-3581.0,1131.0
1877,847.0,-1051.0,509.0,-542.0,-2266.0,600.0
1878,328.0,-886.0,365.0,-132.0,-953.0,298.0
1879,311.0,-836.0,329.0,-37.0,-1007.0,166.0
1880,282.0,-770.0,307.0,39.0,-1042.0,44.0
1881,281.0,-735.0,290.0,67.0,-1071.0,-51.0
1882,347.0,-791.0,286.0,61.0,-1080.0,-108.0
1883,411.0,-981.0,289.0,116.0,-1042.0,-164.0
1884,400.0,-1108.0,235.0,363.0,-966.0,-312.0
1885,328.0,-1029.0,245.0,754.0,-852.0,-512.0
1886,14.0,-646.0,332.0,1043.0,-672.0,-407.0
1887,171.0,-640.0,319.0,829.0,-685.0,-202.0
1888,178.0,-940.0,199.0,-70.0,120.0,-166.0
1889,16.0,-992.0,229.0,-267.0,264.0,-256.0
1890,41.0,-994.0,226.0,-284.0,245.0,-287.0
1891,103.0,-1004.0,176.0,-293.0,220.0,-301.0
1892,100.0,-981.0,155.0,-273.0,213.0,-288.0
1893,71.0,-981.0,177.0,-248.0,203.0,-281.0
1894,83.0,-956.0,203.0,-234.0,176.0,-302.0
1895,79.0,-962.0,191.0,-240.0,172.0,-319.0
1896,91.0,-964.0,193.0,-240.0,156.0,-330.0
1897,107.0,-970.0,180.0,-235.0,141.0,-330.0
1898,122.0,-982.0,162.0,-226.0,122.0,-323.0
1899,146.0,-989.0,143.0,-208.0,106.0,-310.0
1900,152.0,-975.0,143.0,-42.0,40.0,-124.0
1901,137.0,-975.0,153.0,21.0,43.0,-19.0
1902,141.0,-974.0,157.0,21.0,38.0,-21.0
1903,142.0,-977.0,147.0,21.0,33.0,-19.0
1904,147.0,-974.0,147.0,28.0,28.0,-19.0
1905,139.0,-968.0,154.0,38.0,25.0,-14.0
1906,141.0,-968.0,151.0,47.0,20.0,-11.0
1907,144.0,-971.0,150.0,62.0,14.0,-4.0
1908,146.0,-972.0,152.0,81.0,8.0,9.0
1909,159.0,-960.0,142.0,103.0,-5.0,27.0
1910,140.0,-956.0,158.0,122.0,-11.0,46.0
1911,144.0,-953.0,175.0,114.0,-16.0,44.0
1912,126.0,-983.0,156.0,69.0,1.0,14.0
1913,149.0,-952.0,180.0,-34.0,29.0,-118.0
1914,141.0,-969.0,175.0,-56.0,40.0,-134.0
1915,133.0,-969.0,157.0,-73.0,52.0,-157.0
1916,120.0,-966.0,172.0,-79.0,62.0,-190.0
1917,133.0,-955.0,184.0,-95.0,65.0,-234.0
1918,142.0,-975.0,170.0,-124.0,73.0,-268.0
1919,142.0,-971.0,157.0,-132.0,76.0,-289.0
1920,142.0,-961.0,179.0,-128.0,69.0,-306.0
1921,236.0,-969.0,129.0,17.0,34.0,-63.0
1922,219.0,-957.0,148.0,26.0,41.0,-41.0
1923,211.0,-961.0,152.0,16.0,44.0,-35.0
1924,202.0,-971.0,144.0,-2.0,50.0,-42.0
1925,208.0,-967.0,146.0,-11.0,53.0,-54.0
1926,212.0,-968.0,142.0,-22.0,55.0,-61.0
1927,216.0,-969.0,138.0,-32.0,61.0,-68.0
1928,214.0,-963.0,139.0,-36.0,64.0,-71.0
1929,217.0,-962.0,140.0,-36.0,63.0,-69.0
1930,221.0,-962.0,137.0,-33.0,62.0,-64.0
1931,224.0,-955.0,145.0,-26.0,59.0,-55.0
1932,186.0,-960.0,158.0,27.0,69.0,13.0
1933,185.0,-969.0,156.0,53.0,63.0,18.0
1934,192.0,-972.0,154.0,44.0,65.0,-1.0
1935,197.0,-975.0,150.0,41.0,65.0,-13.0
1936,212.0,-985.0,146.0,42.0,65.0,-16.0
1937,218.0,-1015.0,123.0,52.0,70.0,-15.0
1938,250.0,-1045.0,114.0,89.0,73.0,-7.0
1939,279.0,-1056.0,84.0,152.0,80.0,25.0
1940,275.0,-1031.0,108.0,241.0,89.0,79.0
1941,263.0,-990.0,157.0,300.0,96.0,134.0
1942,208.0,-1009.0,174.0,297.0,117.0,180.0
1943,187.0,-1012.0,196.0,276.0,129.0,183.0
1944,274.0,-1254.0,176.0,1095.0,55.0,-509.0
1945,43.0,-1231.0,198.0,2711.0,627.0,-1274.0
1946,14.0,-380.0,-807.0,-344.0,1108.0,359.0
1947,2.0,-1005.0,-73.0,-2541.0,-839.0,838.0
1948,74.0,-1101.0,-12.0,-2587.0,-940.0,835.0
1949,126.0,-1185.0,59.0,-2595.0,-982.0,837.0
1950,154.0,-1255.0,120.0,-2571.0,-975.0,847.0
1951,170.0,-1278.0,177.0,-2527.0,-945.0,863.0
1952,236.0,-1293.0,204.0,-2500.0,-921.0,896.0
1953,308.0,-1308.0,216.0,-2497.0,-883.0,923.0
1954,348.0,-1355.0,230.0,-2515.0,-821.0,929.0
1955,372.0,-1403.0,243.0,-2514.0,-748.0,929.0
1956,232.0,-1128.0,517.0,-1155.0,82.0,96.0
1957,218.0,-1909.0,-1625.0,789.0,-700.0,-325.0
1958,-38.0,-1856.0,-1448.0,2275.0,-241.0,-447.0
1959,-475.0,-1130.0,-719.0,3075.0,616.0,-825.0
1960,311.0,-1104.0,-102.0,2075.0,-399.0,-795.0
1961,506.0,-938.0,577.0,1594.0,-437.0,-659.0
1962,437.0,-909.0,592.0,1291.0,-57.0,-465.0
1963,255.0,-929.0,240.0,978.0,233.0,-390.0
1964,124.0,-1041.0,-79.0,768.0,345.0,-381.0
1965,22.0,-1130.0,-223.0,784.0,366.0,-435.0
1966,-19.0,-1157.0,-272.0,982.0,363.0,-582.0
1967,-26.0,-1190.0,-283.0,1256.0,344.0,-758.0
1968,47.0,-956.0,194.0,276.0,131.0,-230.0
1969,251.0,-955.0,138.0,-154.0,76.0,-763.0
1970,254.0,-929.0,154.0,-133.0,60.0,-668.0
1971,274.0,-936.0,137.0,-132.0,47.0,-575.0
1972,270.0,-944.0,129.0,-113.0,45.0,-486.0
1973,271.0,-948.0,112.0,-75.0,37.0,-402.0
1974,351.0,-932.0,91.0,-16.0,12.0,-301.0
1975,347.0,-912.0,107.0,54.0,30.0,-156.0
1976,310.0,-920.0,133.0,101.0,58.0,-24.0
1977,299.0,-931.0,141.0,133.0,63.0,77.0
1978,283.0,-952.0,127.0,160.0,70.0,160.0
1979,277.0,-941.0,139.0,204.0,72.0,228.0
1980,83.0,-936.0,257.0,213.0,98.0,423.0
1981,141.0,-973.0,202.0,-4.0,107.0,-109.0
1982,147.0,-958.0,200.0,-7.0,105.0,-121.0
1983,148.0,-950.0,207.0,-5.0,102.0,-124.0
1984,166.0,-971.0,206.0,-7.0,99.0,-129.0
1985,164.0,-987.0,204.0,0.0,107.0,-127.0
1986,180.0,-989.0,203.0,20.0,110.0,-122.0
1987,189.0,-988.0,194.0,38.0,119.0,-112.0
1988,210.0,-966.0,199.0,66.0,129.0,-96.0
1989,193.0,-968.0,198.0,79.0,152.0,-73.0
1990,182.0,-961.0,205.0,88.0,170.0,-64.0
1991,185.0,-969.0,204.0,93.0,190.0,-69.0
1992,198.0,-1301.0,229.0,741.0,90.0,-495.0
1993,266.0,-1284.0,220.0,871.0,41.0,-616.0
1994,342.0,-1154.0,209.0,966.0,33.0,-763.0
1995,259.0,-1208.0,239.0,934.0,98.0,-888.0
1996,183.0,-1271.0,284.0,924.0,128.0,-974.0
1997,145.0,-1367.0,315.0,996.0,138.0,-952.0
1998,192.0,-1394.0,305.0,1128.0,137.0,-889.0
1999,289.0,-1436.0,273.0,1224.0,140.0,-926.0
2000,250.0,-984.0,413.0,2727.0,167.0,-550.0
2001,406.0,-1058.0,346.0,2737.0,6.0,-394.0
2002,497.0,-1026.0,302.0,2833.0,-62.0,-365.0
2003,558.0,-942.0,255.0,2909.0,-89.0,-461.0
2004,530.0,-777.0,186.0,2956.0,-36.0,-603.0
2005,477.0,-636.0,93.0,2926.0,42.0,-696.0
2006,348.0,-486.0,33.0,2811.0,145.0,-765.0
2007,289.0,-489.0,-24.0,2553.0,180.0,-798.0
2008,288.0,-354.0,-109.0,2339.0,189.0,-816.0
2009,149.0,-12.0,-133.0,2103.0,312.0,-804.0
2010,-151.0,566.0,-34.0,1683.0,430.0,-633.0
2011,-38.0,-1103.0,-209.0,-3971.0,-676.0,1640.0
2012,148.0,-1250.0,-170.0,-4031.0,-904.0,1603.0
2013,312.0,-1483.0,-136.0,-4031.0,-1027.0,1549.0
2014,358.0,-1578.0,-73.0,-3877.0,-1040.0,1391.0
2015,385.0,-1528.0,-47.0,-3701.0,-1052.0,1214.0
2016,437.0,-1478.0,-50.0,-3646.0,-1061.0,1150.0
2017,435.0,-1543.0,-54.0,-3709.0,-995.0,1163.0
2018,336.0,-1599.0,-23.0,-3755.0,-888.0,1142.0
2019,155.0,-1676.0,48.0,-3813.0,-833.0,1049.0
2020,515.0,-1327.0,1421.0,-950.0,242.0,-144.0
2021,358.0,-1077.0,-84.0,413.0,-10.0,174.0
2022,342.0,-1071.0,-124.0,609.0,-38.0,305.0
2023,325.0,-994.0,-44.0,805.0,-69.0,432.0
2024,296.0,-937.0,57.0,883.0,-90.0,531.0
2025,327.0,-881.0,112.0,852.0,-96.0,596.0
2026,200.0,-876.0,178.0,745.0,-3.0,628.0
2027,80.0,-857.0,205.0,603.0,107.0,534.0
2028,-66.0,-862.0,309.0,443.0,206.0,327.0
2029,-111.0,-934.0,267.0,243.0,243.0,26.0
2030,-54.0,-956.0,221.0,99.0,247.0,-250.0
2031,148.0,-1025.0,120.0,-167.0,182.0,-722.0
2032,348.0,-961.0,81.0,66.0,3.0,-185.0
2033,317.0,-960.0,98.0,137.0,35.0,-67.0
2034,319.0,-946.0,105.0,169.0,44.0,-34.0
2035,294.0,-944.0,106.0,190.0,59.0,-6.0
2036,308.0,-931.0,117.0,195.0,49.0,3.0
2037,300.0,-927.0,128.0,203.0,78.0,14.0
2038,277.0,-937.0,135.0,192.0,99.0,22.0
2039,270.0,-953.0,129.0,183.0,111.0,15.0
2040,285.0,-946.0,133.0,190.0,122.0,5.0
2041,297.0,-941.0,138.0,188.0,134.0,5.0
2042,295.0,-955.0,137.0,182.0,152.0,11.0
2043,296.0,-963.0,122.0,191.0,167.0,17.0
2044,310.0,-937.0,168.0,162.0,198.0,18.0
2045,460.0,-1076.0,232.0,512.0,444.0,-350.0
2046,462.0,-1115.0,242.0,532.0,518.0,-405.0
2047,396.0,-1172.0,272.0,568.0,602.0,-456.0
2048,345.0,-1372.0,296.0,620.0,634.0,-502.0
2049,302.0,-1406.0,304.0,785.0,594.0,-553.0
2050,221.0,-1466.0,329.0,946.0,552.0,-592.0
2051,265.0,-1450.0,318.0,1126.0,482.0,-618.0
2052,272.0,-1456.0,319.0,1272.0,449.0,-674.0
2053,255.0,-1470.0,301.0,1401.0,435.0,-752.0
2054,234.0,-1505.0,285.0,1530.0,427.0,-845.0
2055,263.0,-1534.0,272.0,1681.0,417.0,-962.0
2056,492.0,-779.0,416.0,2707.0,76.0,-618.0
2057,378.0,-89.0,-219.0,-889.0,1267.0,576.0
2058,-535.0,-332.0,-166.0,-1354.0,1511.0,1455.0
2059,-665.0,-204.0,-161.0,-1489.0,1247.0,1657.0
2060,-647.0,-148.0,-201.0,-1781.0,800.0,1830.0
2061,-475.0,-292.0,-288.0,-2171.0,305.0,1919.0
2062,-332.0,-459.0,-319.0,-2442.0,-25.0,1965.0
2063,-263.0,-591.0,-290.0,-2550.0,-231.0,2027.0
2064,-198.0,-655.0,-252.0,-2551.0,-423.0,2034.0
2065,-92.0,-598.0,-245.0,-2527.0,-596.0,1934.0
2066,-19.0,-553.0,-241.0,-2615.0,-711.0,1834.0
2067,52.0,-671.0,-238.0,-2823.0,-804.0,1810.0
2068,933.0,-1485.0,489.0,-2631.0,-567.0,1111.0
2069,864.0,-1434.0,497.0,-2535.0,-404.0,978.0
2070,723.0,-1422.0,531.0,-2447.0,-347.0,818.0
2071,539.0,-1426.0,594.0,-2341.0,-404.0,661.0
2072,387.0,-1475.0,669.0,-2212.0,-560.0,520.0
2073,258.0,-1540.0,738.0,-2029.0,-747.0,394.0
2074,251.0,-1480.0,776.0,-1764.0,-930.0,306.0
2075,470.0,-1324.0,746.0,-1500.0,-1108.0,281.0
2076,649.0,-1219.0,719.0,-1350.0,-1119.0,247.0
2077,714.0,-1217.0,739.0,-1249.0,-998.0,198.0
2078,676.0,-1201.0,770.0,-1104.0,-817.0,151.0
2079,294.0,-799.0,499.0,679.0,-746.0,-262.0
2080,147.0,-974.0,164.0,268.0,25.0,-154.0
2081,138.0,-1024.0,129.0,261.0,45.0,-94.0
2082,169.0,-974.0,127.0,307.0,37.0,-45.0
2083,108.0,-911.0,208.0,344.0,40.0,31.0
2084,81.0,-928.0,213.0,295.0,40.0,61.0
2085,101.0,-945.0,194.0,243.0,39.0,58.0
2086,118.0,-969.0,178.0,219.0,48.0,79.0
2087,133.0,-980.0,187.0,217.0,67.0,113.0
2088,125.0,-981.0,171.0,215.0,93.0,155.0
2089,159.0,-966.0,132.0,229.0,101.0,209.0
2090,37.0,-941.0,217.0,264.0,135.0,252.0
2091,147.0,-968.0,199.0,42.0,103.0,-215.0
2092,61.0,-927.0,235.0,88.0,61.0,-97.0
2093,81.0,-940.0,226.0,83.0,43.0,-80.0
2094,110.0,-953.0,224.0,81.0,33.0,-71.0
2095,90.0,-953.0,228.0,77.0,38.0,-59.0
2096,86.0,-944.0,226.0,70.0,35.0,-55.0
2097,88.0,-942.0,232.0,65.0,27.0,-54.0
2098,88.0,-967.0,231.0,54.0,22.0,-56.0
2099,112.0,-988.0,229.0,42.0,14.0,-56.0
2100,126.0,-1013.0,217.0,37.0,18.0,-43.0
2101,120.0,-997.0,226.0,42.0,25.0,-19.0
2102,89.0,-997.0,219.0,37.0,31.0,1.0
2103,90.0,-987.0,231.0,7.0,-77.0,-39.0
2104,126.0,-955.0,228.0,16.0,-79.0,3.0
2105,103.0,-963.0,232.0,17.0,-71.0,20.0
2106,93.0,-966.0,231.0,15.0,-72.0,26.0
2107,81.0,-962.0,235.0,20.0,-81.0,31.0
2108,84.0,-961.0,239.0,22.0,-95.0,31.0
2109,94.0,-959.0,239.0,19.0,-104.0,31.0
2110,98.0,-957.0,237.0,15.0,-103.0,34.0
2111,104.0,-949.0,239.0,13.0,-100.0,35.0
2112,92.0,-953.0,239.0,7.0,-89.0,35.0
2113,118.0,-946.0,237.0,0.0,-44.0,63.0
2114,76.0,-964.0,242.0,-9.0,-29.0,65.0
2115,66.0,-974.0,241.0,-16.0,-43.0,57.0
2116,66.0,-978.0,240.0,-22.0,-66.0,58.0
2117,60.0,-979.0,240.0,-26.0,-87.0,59.0
2118,68.0,-974.0,238.0,-33.0,-109.0,54.0
2119,82.0,-960.0,240.0,-38.0,-123.0,51.0
2120,74.0,-960.0,241.0,-49.0,-123.0,51.0
2121,88.0,-940.0,240.0,-56.0,-130.0,44.0
2122,76.0,-956.0,238.0,-67.0,-124.0,35.0
2123,73.0,-968.0,236.0,-71.0,-129.0,24.0
2124,-239.0,-1320.0,288.0,376.0,-613.0,1056.0
2125,-165.0,-1077.0,175.0,1057.0,-1220.0,1100.0
2126,-339.0,-921.0,278.0,772.0,-1903.0,1301.0
2127,-425.0,-851.0,286.0,727.0,-2100.0,1370.0
2128,-685.0,-816.0,261.0,638.0,-2331.0,1465.0
2129,-804.0,-825.0,165.0,509.0,-2838.0,1607.0
2130,-671.0,-825.0,1.0,384.0,-3556.0,1703.0
2131,-649.0,-828.0,-165.0,256.0,-4194.0,1659.0
2132,-285.0,-883.0,-373.0,102.0,-4917.0,1586.0
2133,47.0,-933.0,-545.0,10.0,-5371.0,1515.0
2134,262.0,-897.0,-640.0,-24.0,-5503.0,1376.0
2135,422.0,-899.0,-689.0,-92.0,-5455.0,1261.0
2136,471.0,-874.0,-695.0,-135.0,-5241.0,1198.0
2137,427.0,-1142.0,-257.0,-1306.0,-4070.0,1443.0
2138,513.0,-1221.0,-208.0,-1288.0,-4115.0,1405.0
2139,629.0,-1152.0,-174.0,-1164.0,-4167.0,1355.0
2140,668.0,-1065.0,-145.0,-1086.0,-4187.0,1262.0
2141,564.0,-1005.0,-119.0,-1097.0,-4217.0,1095.0
2142,526.0,-1006.0,-97.0,-1145.0,-4382.0,899.0
2143,454.0,-1037.0,-62.0,-1159.0,-4553.0,690.0
2144,374.0,-1115.0,3.0,-1110.0,-4738.0,465.0
2145,269.0,-1071.0,-37.0,393.0,-242.0,-270.0
2146,223.0,-1123.0,119.0,611.0,-48.0,-228.0
2147,240.0,-1082.0,276.0,661.0,40.0,-166.0
2148,359.0,-1097.0,324.0,495.0,39.0,-98.0
2149,257.0,-1116.0,336.0,275.0,93.0,-11.0
2150,192.0,-1160.0,208.0,64.0,109.0,-4.0
2151,142.0,-1159.0,112.0,2.0,84.0,-39.0
2152,26.0,-1108.0,149.0,63.0,118.0,-92.0
2153,2.0,-1062.0,204.0,94.0,90.0,-254.0
2154,71.0,-1056.0,204.0,71.0,41.0,-430.0
2155,162.0,-1041.0,159.0,54.0,25.0,-531.0
2156,167.0,-976.0,195.0,24.0,-5.0,-181.0
2157,231.0,-975.0,175.0,-48.0,62.0,-18.0
2158,210.0,-953.0,190.0,-27.0,77.0,-2.0
2159,198.0,-944.0,201.0,-28.0,82.0,6.0
2160,198.0,-952.0,199.0,-39.0,81.0,4.0
2161,207.0,-955.0,197.0,-47.0,79.0,4.0
2162,207.0,-964.0,191.0,-56.0,82.0,10.0
2163,203.0,-961.0,192.0,-61.0,83.0,14.0
2164,192.0,-955.0,195.0,-66.0,85.0,17.0
2165,178.0,-955.0,199.0,-78.0,84.0,10.0
2166,189.0,-959.0,196.0,-97.0,79.0,-7.0
2167,196.0,-958.0,192.0,-105.0,77.0,-15.0
2168,206.0,-954.0,190.0,-127.0,82.0,-14.0
2169,198.0,-949.0,181.0,-19.0,86.0,23.0
2170,201.0,-944.0,180.0,-28.0,91.0,31.0
2171,186.0,-950.0,183.0,-36.0,102.0,40.0
2172,182.0,-996.0,162.0,-45.0,106.0,38.0
2173,183.0,-999.0,141.0,-26.0,106.0,27.0
2174,183.0,-961.0,180.0,9.0,95.0,26.0
2175,171.0,-962.0,180.0,8.0,92.0,26.0
2176,175.0,-962.0,179.0,3.0,87.0,19.0
2177,176.0,-961.0,180.0,2.0,84.0,16.0
2178,182.0,-963.0,180.0,-1.0,82.0,10.0
2179,184.0,-967.0,175.0,-5.0,83.0,9.0
2180,190.0,-1037.0,174.0,119.0,91.0,0.0
2181,-74.0,-1784.0,160.0,1907.0,-138.0,-210.0
2182,-282.0,-1600.0,143.0,2112.0,-107.0,-390.0
2183,-366.0,-1461.0,104.0,2202.0,-280.0,-344.0
2184,-208.0,-1182.0,95.0,2255.0,-584.0,-314.0
2185,-342.0,-972.0,39.0,2231.0,-643.0,-198.0
2186,-625.0,-718.0,-30.0,2117.0,-736.0,65.0
2187,-478.0,-357.0,-277.0,1859.0,-1285.0,344.0
2188,-627.0,-76.0,-746.0,1236.0,-1737.0,615.0
2189,595.0,-1213.0,-6.0,-2050.0,-1038.0,892.0
2190,553.0,-1270.0,78.0,-2028.0,-1076.0,776.0
2191,501.0,-1333.0,147.0,-1971.0,-1111.0,688.0
2192,469.0,-1337.0,214.0,-1880.0,-1144.0,627.0
2193,497.0,-1318.0,265.0,-1802.0,-1166.0,596.0
2194,585.0,-1308.0,311.0,-1746.0,-1146.0,572.0
2195,711.0,-1334.0,377.0,-1696.0,-1057.0,514.0
2196,733.0,-1338.0,464.0,-1599.0,-851.0,412.0
2197,702.0,-1299.0,543.0,-1471.0,-586.0,338.0
2198,594.0,-1281.0,598.0,-1361.0,-297.0,299.0
2199,507.0,-1229.0,629.0,-1246.0,-72.0,267.0
2200,271.0,-799.0,50.0,-64.0,-422.0,-96.0
2201,119.0,-961.0,134.0,-57.0,-105.0,-209.0
2202,87.0,-842.0,257.0,518.0,-19.0,-80.0
2203,54.0,-920.0,185.0,353.0,10.0,-33.0
2204,-1.0,-953.0,88.0,242.0,36.0,10.0
2205,-56.0,-1040.0,-51.0,168.0,73.0,40.0
2206,-121.0,-1186.0,-213.0,177.0,139.0,14.0
2207,-158.0,-1297.0,-367.0,315.0,227.0,-102.0
2208,-181.0,-1396.0,-467.0,525.0,312.0,-295.0
2209,-145.0,-1402.0,-482.0,786.0,350.0,-519.0
2210,-15.0,-1348.0,-413.0,1041.0,400.0,-701.0
2211,118.0,-1252.0,-267.0,1205.0,507.0,-778.0
2212,157.0,-1168.0,-128.0,1250.0,648.0,-732.0
2213,63.0,-1018.0,99.0,263.0,143.0,-67.0
2214,6.0,-992.0,158.0,279.0,187.0,-158.0
2215,46.0,-1041.0,132.0,259.0,170.0,-280.0
2216,92.0,-1066.0,43.0,290.0,156.0,-382.0
2217,74.0,-956.0,192.0,395.0,160.0,-428.0
2218,92.0,-895.0,250.0,374.0,122.0,-455.0
2219,124.0,-936.0,150.0,272.0,86.0,-478.0
2220,137.0,-925.0,169.0,252.0,88.0,-480.0
2221,224.0,-993.0,151.0,-47.0,57.0,-271.0
2222,258.0,-1002.0,136.0,-49.0,51.0,-246.0
2223,293.0,-1002.0,114.0,-30.0,42.0,-193.0
2224,284.0,-1010.0,120.0,15.0,44.0,-112.0
2225,307.0,-1020.0,102.0,64.0,33.0,-42.0
2226,290.0,-996.0,125.0,136.0,32.0,32.0
2227,293.0,-1005.0,130.0,180.0,40.0,92.0
2228,293.0,-972.0,115.0,233.0,46.0,154.0
2229,207.0,-959.0,204.0,276.0,74.0,194.0
2230,211.0,-994.0,146.0,230.0,95.0,157.0
2231,144.0,-972.0,200.0,229.0,137.0,126.0
2232,259.0,-967.0,183.0,119.0,158.0,-147.0
2233,230.0,-945.0,226.0,226.0,201.0,-177.0
2234,208.0,-964.0,264.0,409.0,74.0,-523.0
2235,229.0,-948.0,266.0,423.0,59.0,-527.0
2236,216.0,-965.0,274.0,428.0,46.0,-522.0
2237,262.0,-973.0,275.0,430.0,4.0,-524.0
2238,361.0,-978.0,258.0,458.0,-1.0,-520.0
2239,443.0,-979.0,246.0,485.0,27.0,-518.0
2240,483.0,-990.0,250.0,493.0,88.0,-532.0
2241,428.0,-1074.0,254.0,492.0,172.0,-547.0
2242,333.0,-1189.0,275.0,522.0,228.0,-548.0
2243,347.0,-1248.0,289.0,606.0,220.0,-561.0
2244,395.0,-1253.0,283.0,714.0,216.0,-582.0
2245,348.0,-1283.0,301.0,799.0,258.0,-635.0
2246,282.0,-1358.0,324.0,883.0,291.0,-697.0
2247,269.0,-1426.0,316.0,989.0,290.0,-761.0
2248,298.0,-1501.0,295.0,1112.0,285.0,-823.0
2249,171.0,-736.0,607.0,2311.0,370.0,-1234.0
2250,332.0,-796.0,635.0,2215.0,258.0,-1087.0
2251,437.0,-861.0,618.0,2170.0,180.0,-1014.0
2252,577.0,-843.0,541.0,2187.0,79.0,-955.0
2253,652.0,-890.0,482.0,2156.0,81.0,-948.0
2254,597.0,-932.0,439.0,2165.0,175.0,-987.0
2255,535.0,-942.0,337.0,2258.0,236.0,-1043.0
2256,507.0,-793.0,237.0,2397.0,249.0,-1120.0
2257,364.0,-794.0,195.0,2390.0,332.0,-1227.0
2258,276.0,-758.0,171.0,2400.0,346.0,-1241.0
2259,174.0,-342.0,142.0,1932.0,85.0,-577.0
2260,51.0,-1208.0,-82.0,-3686.0,-341.0,1664.0
2261,121.0,-1383.0,-40.0,-3725.0,-505.0,1559.0
2262,203.0,-1464.0,30.0,-3672.0,-622.0,1499.0
2263,310.0,-1475.0,83.0,-3608.0,-713.0,1453.0
2264,441.0,-1533.0,99.0,-3607.0,-756.0,1399.0
2265,440.0,-1633.0,142.0,-3601.0,-687.0,1339.0
2266,385.0,-1669.0,201.0,-3523.0,-601.0,1284.0
2267,354.0,-1631.0,242.0,-3429.0,-556.0,1235.0
2268,360.0,-1599.0,259.0,-3407.0,-519.0,1199.0
2269,392.0,-1620.0,270.0,-3443.0,-457.0,1201.0
2270,432.0,-1691.0,295.0,-3478.0,-351.0,1221.0
2271,542.0,-1799.0,327.0,-3458.0,-221.0,1245.0
2272,667.0,-1801.0,380.0,-3336.0,-37.0,1231.0
2273,766.0,-1721.0,456.0,-3190.0,188.0,1129.0
2274,768.0,-1735.0,606.0,-3099.0,405.0,914.0
2275,208.0,-1077.0,405.0,368.0,-334.0,-122.0
2276,-254.0,-1678.0,-647.0,1007.0,488.0,-149.0
2277,53.0,-1292.0,-335.0,3159.0,537.0,-1122.0
2278,-58.0,-1014.0,-122.0,3251.0,515.0,-1162.0
2279,-78.0,-684.0,135.0,3238.0,369.0,-1065.0
2280,614.0,-380.0,389.0,2946.0,-90.0,-693.0
2281,595.0,-279.0,600.0,2365.0,-194.0,-33.0
2282,361.0,-613.0,609.0,1480.0,-96.0,341.0
2283,-47.0,-810.0,503.0,819.0,127.0,350.0
2284,-115.0,-927.0,337.0,457.0,168.0,149.0
2285,-10.0,-1037.0,148.0,331.0,56.0,-93.0
2286,17.0,-1043.0,80.0,351.0,101.0,-233.0
2287,95.0,-994.0,105.0,399.0,72.0,-327.0
2288,92.0,-940.0,197.0,80.0,94.0,-299.0
2289,112.0,-964.0,194.0,45.0,85.0,-346.0
2290,149.0,-999.0,169.0,14.0,76.0,-383.0
2291,214.0,-1012.0,153.0,13.0,60.0,-387.0
2292,238.0,-1011.0,150.0,36.0,61.0,-350.0
2293,229.0,-1005.0,145.0,66.0,76.0,-303.0
2294,190.0,-938.0,210.0,97.0,89.0,53.0
2295,181.0,-955.0,209.0,83.0,99.0,60.0
2296,172.0,-957.0,204.0,72.0,109.0,59.0
2297,184.0,-945.0,203.0,70.0,107.0,61.0
2298,175.0,-946.0,203.0,69.0,111.0,78.0
2299,184.0,-936.0,198.0,75.0,105.0,97.0
2300,177.0,-930.0,206.0,86.0,104.0,113.0
2301,153.0,-962.0,218.0,78.0,111.0,102.0
2302,152.0,-984.0,196.0,65.0,109.0,83.0
2303,175.0,-962.0,201.0,73.0,102.0,79.0
2304,175.0,-948.0,207.0,79.0,97.0,92.0
2305,141.0,-932.0,223.0,71.0,104.0,93.0
2306,190.0,-1032.0,228.0,190.0,154.0,-157.0
2307,215.0,-1056.0,229.0,226.0,146.0,-186.0
2308,210.0,-1071.0,232.0,280.0,156.0,-217.0
2309,195.0,-1094.0,241.0,334.0,161.0,-248.0
2310,199.0,-1115.0,230.0,398.0,153.0,-301.0
2311,182.0,-1168.0,222.0,470.0,152.0,-351.0
2312,179.0,-1206.0,237.0,556.0,127.0,-431.0
2313,228.0,-1225.0,235.0,653.0,86.0,-520.0
2314,269.0,-1200.0,237.0,752.0,60.0,-641.0
2315,230.0,-1137.0,246.0,796.0,84.0,-759.0
2316,141.0,-1214.0,280.0,785.0,106.0,-835.0
2317,276.0,-1366.0,136.0,2357.0,572.0,-1479.0
2318,-105.0,-1020.0,-70.0,-3309.0,74.0,1845.0
2319,-87.0,-1090.0,-1.0,-3243.0,-84.0,1753.0
2320,5.0,-1130.0,22.0,-3198.0,-302.0,1656.0
2321,101.0,-1182.0,25.0,-3205.0,-482.0,1566.0
2322,177.0,-1243.0,23.0,-3238.0,-615.0,1470.0
2323,241.0,-1275.0,22.0,-3271.0,-717.0,1375.0
2324,292.0,-1395.0,43.0,-3348.0,-776.0,1314.0
2325,329.0,-1560.0,101.0,-3386.0,-784.0,1279.0
2326,367.0,-1667.0,204.0,-3318.0,-751.0,1248.0
2327,381.0,-1739.0,258.0,-3247.0,-707.0,1204.0
2328,441.0,-1823.0,314.0,-3173.0,-667.0,1141.0
2329,46.0,-1324.0,637.0,-1685.0,132.0,355.0
2330,-106.0,-961.0,428.0,-543.0,-213.0,152.0
2331,73.0,-923.0,264.0,-246.0,-435.0,77.0
2332,87.0,-876.0,228.0,-168.0,-451.0,42.0
2333,78.0,-855.0,213.0,-125.0,-460.0,-7.0
2334,99.0,-869.0,197.0,-99.0,-494.0,-52.0
2335,108.0,-908.0,177.0,-54.0,-522.0,-105.0
2336,109.0,-867.0,179.0,36.0,-555.0,-179.0
2337,150.0,-825.0,157.0,93.0,-612.0,-247.0
2338,187.0,-861.0,140.0,104.0,-639.0,-293.0
2339,187.0,-902.0,149.0,144.0,-636.0,-336.0
2340,228.0,-915.0,138.0,216.0,-647.0,-372.0
2341,327.0,-895.0,115.0,286.0,-655.0,-404.0
2342,232.0,-737.0,407.0,2598.0,142.0,-1743.0
2343,-113.0,-803.0,142.0,2303.0,397.0,-1822.0
2344,-43.0,-798.0,15.0,2110.0,307.0,-1801.0
2345,235.0,-674.0,152.0,1944.0,93.0,-1536.0
2346,564.0,-553.0,457.0,1643.0,-99.0,-1062.0
2347,457.0,-678.0,442.0,1163.0,-140.0,-553.0
2348,438.0,-852.0,224.0,802.0,-238.0,-191.0
2349,509.0,-904.0,120.0,632.0,-277.0,-18.0
2350,427.0,-978.0,60.0,547.0,-72.0,101.0
2351,294.0,-1000.0,86.0,516.0,119.0,194.0
2352,119.0,-948.0,169.0,508.0,193.0,267.0
2353,167.0,-970.0,159.0,164.0,168.0,-7.0
2354,107.0,-932.0,217.0,133.0,40.0,-38.0
2355,95.0,-937.0,222.0,125.0,39.0,-23.0
2356,90.0,-945.0,218.0,112.0,36.0,-15.0
2357,92.0,-947.0,224.0,99.0,30.0,-25.0
2358,82.0,-967.0,219.0,83.0,27.0,-40.0
2359,69.0,-975.0,215.0,76.0,28.0,-58.0
2360,77.0,-971.0,220.0,70.0,18.0,-82.0
2361,104.0,-970.0,219.0,60.0,7.0,-99.0
2362,123.0,-976.0,216.0,51.0,6.0,-99.0
2363,104.0,-980.0,219.0,43.0,18.0,-91.0
2364,118.0,-979.0,213.0,37.0,17.0,-93.0
2365,103.0,-960.0,229.0,48.0,-99.0,-4.0
2366,113.0,-954.0,230.0,16.0,-14.0,-21.0
2367,110.0,-957.0,223.0,13.0,-16.0,-27.0
2368,116.0,-959.0,222.0,15.0,-16.0,-34.0
2369,125.0,-954.0,224.0,19.0,-17.0,-35.0
2370,115.0,-956.0,226.0,19.0,-12.0,-30.0
2371,106.0,-956.0,229.0,22.0,-13.0,-32.0
2372,124.0,-953.0,228.0,23.0,-25.0,-35.0
2373,131.0,-956.0,228.0,22.0,-27.0,-30.0
2374,117.0,-956.0,231.0,21.0,-20.0,-25.0
2375,135.0,-983.0,227.0,23.0,-123.0,-52.0
2376,148.0,-986.0,225.0,25.0,-119.0,-41.0
2377,103.0,-1003.0,226.0,27.0,-107.0,-24.0
2378,104.0,-1016.0,211.0,40.0,-129.0,-18.0
2379,103.0,-984.0,227.0,70.0,-163.0,-12.0
2380,123.0,-984.0,224.0,81.0,-191.0,-3.0
2381,138.0,-960.0,235.0,89.0,-201.0,2.0
2382,115.0,-960.0,240.0,80.0,-194.0,3.0
2383,92.0,-959.0,248.0,71.0,-193.0,1.0
2384,140.0,-938.0,239.0,63.0,-210.0,-8.0
2385,141.0,-939.0,237.0,46.0,-193.0,-22.0
2386,34.0,-1051.0,241.0,-13.0,-190.0,-39.0
2387,-406.0,-1018.0,-131.0,-189.0,-2759.0,1204.0
2388,-282.0,-1032.0,-223.0,-236.0,-3103.0,1210.0
2389,-125.0,-1055.0,-293.0,-269.0,-3379.0,1198.0
2390,4.0,-1076.0,-339.0,-278.0,-3525.0,1187.0
2391,10.0,-1090.0,-364.0,-263.0,-3539.0,1186.0
2392,-40.0,-1086.0,-379.0,-233.0,-3538.0,1131.0
2393,-73.0,-1068.0,-391.0,-202.0,-3589.0,1051.0
2394,-137.0,-1064.0,-411.0,-177.0,-3675.0,1017.0
2395,-200.0,-1032.0,-420.0,-164.0,-3800.0,1026.0
2396,-149.0,-1048.0,-454.0,-186.0,-3983.0,1052.0
2397,-61.0,-1057.0,-486.0,-199.0,-4147.0,1074.0
2398,209.0,-967.0,-272.0,-456.0,-3809.0,996.0
2399,509.0,-945.0,-94.0,-886.0,-3936.0,322.0
2400,522.0,-1070.0,-8.0,-920.0,-3863.0,292.0
2401,707.0,-1130.0,56.0,-833.0,-3844.0,206.0
2402,799.0,-1107.0,124.0,-694.0,-3717.0,49.0
2403,860.0,-1099.0,192.0,-542.0,-3574.0,-71.0
2404,918.0,-1060.0,178.0,-380.0,-3405.0,-187.0
2405,901.0,-939.0,160.0,-221.0,-3180.0,-301.0
2406,889.0,-907.0,168.0,-138.0,-2909.0,-375.0
2407,839.0,-909.0,206.0,-79.0,-2583.0,-413.0
2408,845.0,-969.0,229.0,-13.0,-2242.0,-405.0
2409,688.0,-1074.0,227.0,130.0,-1859.0,-417.0
2410,573.0,-909.0,216.0,411.0,-1600.0,-522.0
2411,536.0,-887.0,248.0,563.0,-1482.0,-579.0
2412,569.0,-1022.0,334.0,675.0,-1394.0,-542.0
2413,464.0,-906.0,463.0,861.0,-1177.0,-404.0
2414,-108.0,-1013.0,218.0,146.0,-8.0,91.0
2415,121.0,-948.0,224.0,67.0,-37.0,-264.0
2416,119.0,-945.0,224.0,35.0,-27.0,-236.0
2417,84.0,-951.0,222.0,4.0,-6.0,-217.0
2418,76.0,-946.0,234.0,-15.0,-4.0,-213.0
2419,80.0,-967.0,220.0,-45.0,-8.0,-219.0
2420,97.0,-995.0,196.0,-61.0,-8.0,-231.0
2421,109.0,-982.0,205.0,-51.0,-3.0,-235.0
2422,92.0,-986.0,200.0,-54.0,6.0,-231.0
2423,80.0,-986.0,203.0,-58.0,6.0,-241.0
2424,99.0,-988.0,201.0,-57.0,-8.0,-252.0
2425,106.0,-986.0,192.0,-51.0,-20.0,-250.0
2426,130.0,-978.0,189.0,-35.0,-30.0,-238.0
2427,142.0,-960.0,204.0,-17.0,-32.0,-216.0
2428,148.0,-960.0,203.0,-18.0,-24.0,-188.0
2429,142.0,-960.0,201.0,-18.0,-11.0,-160.0
2430,156.0,-954.0,200.0,-1.0,38.0,-9.0
2431,129.0,-940.0,215.0,-22.0,50.0,145.0
2432,126.0,-950.0,208.0,-39.0,57.0,130.0
2433,131.0,-952.0,202.0,-48.0,65.0,117.0
2434,122.0,-957.0,205.0,-53.0,75.0,109.0
2435,121.0,-964.0,201.0,-62.0,82.0,99.0
2436,121.0,-970.0,192.0,-70.0,88.0,89.0
2437,95.0,-971.0,190.0,-69.0,98.0,84.0
2438,102.0,-978.0,190.0,-65.0,94.0,71.0
2439,119.0,-980.0,185.0,-63.0,90.0,59.0
2440,116.0,-979.0,178.0,-57.0,93.0,62.0
2441,100.0,-989.0,175.0,-50.0,98.0,58.0
2442,125.0,-966.0,186.0,-51.0,100.0,-44.0
2443,106.0,-1010.0,152.0,43.0,123.0,7.0
2444,102.0,-976.0,184.0,84.0,109.0,15.0
2445,92.0,-970.0,195.0,89.0,97.0,21.0
2446,94.0,-978.0,196.0,82.0,88.0,19.0
2447,99.0,-985.0,197.0,74.0,85.0,13.0
2448,115.0,-999.0,199.0,65.0,84.0,11.0
2449,123.0,-1008.0,190.0,51.0,100.0,14.0
2450,105.0,-1027.0,180.0,45.0,122.0,21.0
2451,89.0,-1042.0,172.0,64.0,135.0,14.0
2452,104.0,-1121.0,138.0,91.0,129.0,-11.0
2453,124.0,-1177.0,102.0,179.0,119.0,-32.0
2454,-361.0,-1959.0,39.0,2703.0,-511.0,-721.0
2455,-85.0,-405.0,-828.0,-1415.0,-620.0,1324.0
2456,-221.0,-467.0,-708.0,-1720.0,-527.0,1562.0
2457,-233.0,-516.0,-633.0,-1976.0,-613.0,1686.0
2458,-176.0,-617.0,-570.0,-2232.0,-753.0,1763.0
2459,-181.0,-678.0,-505.0,-2403.0,-874.0,1852.0
2460,-75.0,-769.0,-460.0,-2565.0,-1065.0,1892.0
2461,43.0,-948.0,-391.0,-2712.0,-1224.0,1875.0
2462,178.0,-1081.0,-323.0,-2743.0,-1350.0,1821.0
2463,385.0,-1110.0,-278.0,-2707.0,-1451.0,1732.0
2464,509.0,-1181.0,-261.0,-2712.0,-1445.0,1635.0
2465,566.0,-1220.0,-234.0,-2705.0,-1381.0,1556.0
2466,637.0,-1299.0,876.0,-1449.0,501.0,292.0
2467,220.0,-848.0,286.0,288.0,-539.0,-349.0
2468,244.0,-885.0,297.0,316.0,-393.0,-361.0
2469,127.0,-1385.0,318.0,480.0,-236.0,-333.0
2470,148.0,-647.0,393.0,1130.0,-216.0,-274.0
2471,86.0,-682.0,321.0,909.0,-129.0,-118.0
2472,28.0,-753.0,206.0,621.0,-46.0,-52.0
2473,-84.0,-971.0,41.0,489.0,65.0,-16.0
2474,-317.0,-1221.0,-136.0,585.0,201.0,-97.0
2475,-536.0,-1555.0,-386.0,811.0,194.0,-371.0
2476,-529.0,-1805.0,-659.0,1097.0,-23.0,-797.0
2477,-219.0,-1870.0,-753.0,1478.0,-274.0,-1148.0
2478,94.0,-936.0,168.0,380.0,63.0,-9.0
2479,33.0,-983.0,152.0,-24.0,98.0,-572.0
2480,176.0,-1017.0,116.0,3.0,102.0,-542.0
2481,200.0,-1054.0,86.0,49.0,113.0,-482.0
2482,164.0,-1026.0,62.0,133.0,132.0,-412.0
2483,132.0,-960.0,150.0,219.0,130.0,-350.0
2484,98.0,-943.0,189.0,215.0,117.0,-309.0
2485,104.0,-954.0,179.0,169.0,96.0,-290.0
2486,121.0,-961.0,180.0,130.0,80.0,-276.0
2487,118.0,-972.0,152.0,94.0,77.0,-259.0
2488,114.0,-966.0,152.0,89.0,74.0,-248.0
2489,125.0,-964.0,161.0,88.0,67.0,-247.0
2490,168.0,-972.0,175.0,163.0,66.0,39.0
2491,185.0,-997.0,152.0,159.0,67.0,73.0
2492,206.0,-983.0,154.0,190.0,72.0,135.0
2493,225.0,-962.0,156.0,233.0,76.0,243.0
2494,220.0,-948.0,158.0,276.0,83.0,375.0
2495,221.0,-942.0,162.0,314.0,82.0,488.0
2496,144.0,-935.0,189.0,335.0,98.0,573.0
2497,74.0,-950.0,200.0,324.0,111.0,590.0
2498,25.0,-964.0,214.0,302.0,109.0,539.0
2499,-17.0,-963.0,230.0,270.0,98.0,435.0
2500,-20.0,-1000.0,225.0,213.0,74.0,275.0
2501,131.0,-983.0,214.0,96.0,92.0,-116.0
2502,146.0,-978.0,222.0,108.0,102.0,-131.0
2503,149.0,-979.0,226.0,116.0,115.0,-144.0
2504,129.0,-985.0,231.0,123.0,127.0,-170.0
2505,131.0,-984.0,229.0,127.0,121.0,-196.0
2506,133.0,-974.0,234.0,137.0,123.0,-209.0
2507,131.0,-977.0,235.0,145.0,126.0,-222.0
2508,126.0,-982.0,235.0,152.0,127.0,-247.0
2509,271.0,-1013.0,264.0,572.0,31.0,-715.0
2510,262.0,-1401.0,291.0,1234.0,367.0,-990.0
2511,151.0,-1082.0,523.0,2310.0,215.0,-1210.0
2512,312.0,-1143.0,596.0,2370.0,142.0,-1061.0
2513,355.0,-1057.0,592.0,2492.0,123.0,-935.0
2514,450.0,-1077.0,604.0,2483.0,28.0,-835.0
2515,461.0,-1176.0,550.0,2479.0,-49.0,-794.0
2516,481.0,-1131.0,472.0,2596.0,-175.0,-761.0
2517,533.0,-1089.0,391.0,2700.0,-270.0,-695.0
2518,491.0,-1067.0,313.0,2819.0,-249.0,-629.0
2519,503.0,-897.0,228.0,2998.0,-246.0,-579.0
2520,117.0,-412.0,-234.0,-3153.0,1604.0,1739.0
2521,-275.0,-367.0,-147.0,-3266.0,1889.0,1730.0
2522,-688.0,-543.0,-74.0,-3494.0,1862.0,1919.0
2523,-760.0,-756.0,-90.0,-3579.0,1453.0,2219.0
2524,-664.0,-803.0,-114.0,-3484.0,996.0,2440.0
2525,-633.0,-900.0,-100.0,-3454.0,686.0,2410.0
2526,-527.0,-940.0,-105.0,-3385.0,347.0,2241.0
2527,-385.0,-954.0,-97.0,-3311.0,18.0,2091.0
2528,-282.0,-975.0,-66.0,-3277.0,-236.0,2010.0
2529,-202.0,-979.0,-25.0,-3269.0,-449.0,1960.0
2530,-64.0,-1021.0,-2.0,-3334.0,-660.0,1950.0
2531,143.0,-1192.0,5.0,-3455.0,-830.0,1978.0
2532,321.0,-1330.0,37.0,-3484.0,-881.0,1952.0
2533,391.0,-1365.0,79.0,-3443.0,-822.0,1827.0
2534,415.0,-1404.0,97.0,-3448.0,-736.0,1701.0
2535,240.0,-1644.0,1000.0,-2859.0,1114.0,305.0
2536,187.0,-1746.0,1119.0,-2590.0,900.0,212.0
2537,203.0,-1583.0,1169.0,-2103.0,723.0,125.0
2538,281.0,-1328.0,1181.0,-1678.0,613.0,11.0
2539,336.0,-1268.0,1178.0,-1441.0,614.0,-41.0
2540,225.0,-1252.0,1171.0,-1214.0,720.0,-19.0
2541,115.0,-1170.0,1099.0,-942.0,783.0,-2.0
2542,-75.0,-1140.0,1017.0,-706.0,797.0,-1.0
2543,-256.0,-1150.0,941.0,-475.0,708.0,36.0
2544,-219.0,-1105.0,825.0,-208.0,496.0,120.0
2545,-82.0,-963.0,714.0,41.0,296.0,137.0
2546,108.0,-938.0,591.0,218.0,96.0,79.0
2547,-75.0,-708.0,542.0,2662.0,-57.0,-1020.0
2548,-12.0,-780.0,390.0,2150.0,-68.0,-1305.0
2549,115.0,-891.0,123.0,1761.0,-29.0,-1452.0
2550,154.0,-932.0,-59.0,1534.0,128.0,-1420.0
2551,227.0,-890.0,9.0,1400.0,217.0,-1288.0
2552,226.0,-810.0,213.0,1263.0,279.0,-1091.0
2553,150.0,-810.0,260.0,1072.0,285.0,-924.0
2554,122.0,-814.0,233.0,915.0,142.0,-802.0
2555,295.0,-789.0,253.0,778.0,-107.0,-663.0
2556,381.0,-845.0,191.0,597.0,-187.0,-476.0
2557,344.0,-914.0,112.0,440.0,-88.0,-318.0
2558,159.0,-954.0,142.0,62.0,116.0,-210.0
2559,185.0,-956.0,132.0,53.0,97.0,-202.0
2560,209.0,-977.0,105.0,48.0,85.0,-171.0
2561,243.0,-970.0,100.0,72.0,79.0,-119.0
2562,215.0,-969.0,108.0,103.0,83.0,-51.0
2563,180.0,-969.0,133.0,123.0,87.0,-11.0
2564,162.0,-970.0,133.0,120.0,86.0,-4.0
2565,146.0,-970.0,148.0,116.0,83.0,-10.0
2566,126.0,-980.0,165.0,95.0,38.0,-61.0
2567,133.0,-995.0,147.0,91.0,37.0,-91.0
2568,145.0,-969.0,175.0,109.0,31.0,-111.0
2569,162.0,-957.0,181.0,108.0,24.0,-115.0
2570,165.0,-967.0,170.0,95.0,30.0,-110.0
2571,168.0,-962.0,174.0,91.0,37.0,-104.0
2572,159.0,-964.0,182.0,88.0,43.0,-91.0
2573,163.0,-970.0,168.0,75.0,47.0,-89.0
2574,166.0,-961.0,178.0,78.0,51.0,-87.0
2575,165.0,-965.0,180.0,76.0,56.0,-86.0
2576,148.0,-963.0,180.0,69.0,65.0,-89.0
2577,212.0,-943.0,199.0,167.0,108.0,-62.0
2578,167.0,-994.0,232.0,130.0,165.0,-104.0
2579,187.0,-1007.0,229.0,139.0,173.0,-150.0
2580,207.0,-1046.0,218.0,139.0,164.0,-171.0
2581,195.0,-1074.0,223.0,186.0,181.0,-209.0
2582,191.0,-1161.0,255.0,280.0,179.0,-280.0
2583,336.0,-997.0,220.0,436.0,108.0,-424.0
2584,261.0,-1029.0,216.0,457.0,170.0,-454.0
2585,215.0,-1083.0,234.0,463.0,219.0,-472.0
2586,220.0,-1090.0,232.0,503.0,215.0,-557.0
2587,224.0,-1115.0,239.0,539.0,207.0,-664.0
2588,410.0,-974.0,301.0,811.0,215.0,-649.0
2589,67.0,-1366.0,351.0,1711.0,553.0,-1174.0
2590,60.0,-1356.0,371.0,1902.0,472.0,-1165.0
2591,42.0,-1354.0,420.0,2073.0,403.0,-1100.0
2592,121.0,-1365.0,469.0,2241.0,293.0,-976.0
2593,274.0,-1350.0,551.0,2427.0,177.0,-860.0
2594,363.0,-1277.0,506.0,2608.0,99.0,-790.0
2595,488.0,-1135.0,461.0,2725.0,10.0,-729.0
2596,492.0,-1097.0,461.0,2698.0,-8.0,-680.0
2597,487.0,-1067.0,427.0,2677.0,-77.0,-632.0
2598,-590.0,-242.0,-271.0,-1828.0,1510.0,1714.0
2599,-510.0,-180.0,-319.0,-2102.0,1114.0,1900.0
2600,-361.0,-334.0,-386.0,-2505.0,754.0,1980.0
2601,-297.0,-531.0,-389.0,-2786.0,523.0,1926.0
2602,-323.0,-634.0,-321.0,-2891.0,332.0,1798.0
2603,-324.0,-708.0,-256.0,-2939.0,74.0,1706.0
2604,-236.0,-735.0,-225.0,-2965.0,-231.0,1674.0
2605,-99.0,-770.0,-224.0,-3027.0,-490.0,1660.0
2606,19.0,-859.0,-216.0,-3137.0,-664.0,1615.0
2607,119.0,-962.0,-171.0,-3244.0,-771.0,1523.0
2608,191.0,-1006.0,-95.0,-3312.0,-825.0,1440.0
2609,522.0,-1362.0,547.0,-2805.0,803.0,1020.0
2610,190.0,-1068.0,887.0,-783.0,97.0,179.0
2611,134.0,-1126.0,893.0,-612.0,79.0,117.0
2612,131.0,-1233.0,878.0,-316.0,4.0,25.0
2613,170.0,-1221.0,871.0,131.0,-94.0,-138.0
2614,235.0,-1220.0,871.0,601.0,-235.0,-379.0
2615,347.0,-942.0,838.0,1141.0,-400.0,-708.0
2616,416.0,-627.0,852.0,1397.0,-473.0,-924.0
2617,467.0,-676.0,760.0,1254.0,-468.0,-892.0
2618,358.0,-987.0,453.0,1077.0,-426.0,-732.0
2619,107.0,-1681.0,-233.0,869.0,-468.0,-667.0
2620,71.0,-1959.0,-1507.0,664.0,-639.0,-755.0
2621,93.0,-982.0,146.0,-103.0,156.0,-345.0
2622,170.0,-999.0,119.0,42.0,90.0,-132.0
2623,181.0,-994.0,112.0,65.0,80.0,-114.0
2624,184.0,-989.0,124.0,97.0,71.0,-86.0
2625,195.0,-1001.0,121.0,112.0,65.0,-64.0
2626,201.0,-1020.0,102.0,127.0,71.0,-44.0
2627,188.0,-1017.0,103.0,165.0,79.0,-17.0
2628,172.0,-996.0,122.0,208.0,80.0,0.0
2629,171.0,-959.0,155.0,234.0,71.0,15.0
2630,151.0,-956.0,168.0,228.0,78.0,29.0
2631,155.0,-964.0,164.0,210.0,82.0,22.0
2632,135.0,-958.0,169.0,199.0,97.0,12.0
2633,113.0,-951.0,175.0,178.0,102.0,-36.0
2634,156.0,-956.0,203.0,61.0,39.0,-94.0
2635,146.0,-970.0,199.0,57.0,40.0,-67.0
2636,136.0,-981.0,191.0,59.0,42.0,-54.0
2637,140.0,-974.0,198.0,67.0,39.0,-54.0
2638,125.0,-974.0,204.0,65.0,43.0,-55.0
2639,130.0,-973.0,202.0,60.0,39.0,-61.0
2640,133.0,-961.0,203.0,60.0,33.0,-62.0
2641,117.0,-960.0,212.0,58.0,31.0,-64.0
2642,123.0,-967.0,206.0,44.0,24.0,-79.0
2643,151.0,-969.0,197.0,38.0,20.0,-90.0
2644,152.0,-959.0,207.0,41.0,26.0,-82.0
2645,138.0,-962.0,210.0,37.0,35.0,-71.0
2646,121.0,-964.0,212.0,33.0,37.0,-72.0
2647,131.0,-961.0,211.0,27.0,32.0,-85.0
2648,143.0,-955.0,210.0,21.0,28.0,-93.0
2649,161.0,-955.0,208.0,11.0,31.0,-76.0
2650,133.0,-976.0,211.0,30.0,105.0,28.0
2651,140.0,-981.0,210.0,32.0,105.0,16.0
2652,138.0,-983.0,208.0,36.0,108.0,7.0
2653,128.0,-985.0,208.0,41.0,109.0,-3.0
2654,139.0,-976.0,213.0,50.0,103.0,-14.0
2655,155.0,-977.0,208.0,54.0,96.0,-13.0
2656,167.0,-975.0,207.0,61.0,99.0,0.0
2657,172.0,-972.0,208.0,69.0,104.0,25.0
2658,157.0,-962.0,213.0,78.0,116.0,49.0
2659,131.0,-950.0,223.0,80.0,125.0,63.0
2660,116.0,-946.0,225.0,72.0,124.0,62.0
2661,121.0,-938.0,225.0,62.0,116.0,54.0
2662,118.0,-939.0,227.0,50.0,109.0,50.0
2663,119.0,-957.0,225.0,34.0,103.0,43.0
2664,117.0,-987.0,221.0,19.0,99.0,33.0
2665,135.0,-940.0,226.0,-12.0,76.0,90.0
2666,112.0,-957.0,221.0,-14.0,83.0,32.0
2667,115.0,-961.0,222.0,-15.0,83.0,33.0
2668,111.0,-967.0,218.0,-15.0,85.0,33.0
2669,109.0,-970.0,218.0,-14.0,87.0,33.0
2670,107.0,-969.0,217.0,-11.0,86.0,30.0
2671,111.0,-969.0,218.0,-8.0,84.0,29.0
2672,109.0,-967.0,218.0,-7.0,84.0,29.0
2673,107.0,-968.0,218.0,-6.0,84.0,29.0
2674,106.0,-970.0,219.0,-4.0,83.0,27.0
2675,107.0,-968.0,218.0,-2.0,82.0,27.0
2676,83.0,-961.0,222.0,-27.0,114.0,14.0
2677,82.0,-964.0,224.0,-27.0,108.0,8.0
2678,91.0,-965.0,221.0,-29.0,100.0,2.0
2679,103.0,-973.0,218.0,-31.0,97.0,1.0
2680,110.0,-974.0,217.0,-32.0,100.0,4.0
2681,93.0,-972.0,220.0,-32.0,114.0,12.0
2682,88.0,-974.0,220.0,-31.0,116.0,13.0
2683,89.0,-973.0,215.0,-27.0,113.0,13.0
2684,94.0,-971.0,216.0,-21.0,111.0,13.0
2685,92.0,-972.0,218.0,-17.0,110.0,16.0
2686,92.0,-971.0,219.0,-12.0,109.0,21.0
2687,87.0,-969.0,222.0,-10.0,109.0,23.0
2688,80.0,-970.0,220.0,-10.0,107.0,23.0
2689,81.0,-968.0,220.0,-7.0,101.0,23.0
2690,85.0,-958.0,222.0,17.0,64.0,-32.0
2691,89.0,-966.0,223.0,12.0,68.0,-39.0
2692,81.0,-962.0,225.0,10.0,71.0,-42.0
2693,82.0,-958.0,223.0,9.0,70.0,-47.0
2694,87.0,-955.0,224.0,9.0,67.0,-51.0
2695,81.0,-953.0,225.0,9.0,67.0,-51.0
2696,77.0,-956.0,223.0,9.0,65.0,-58.0
2697,83.0,-964.0,223.0,9.0,59.0,-69.0
2698,87.0,-966.0,223.0,8.0,55.0,-77.0
2699,96.0,-953.0,225.0,7.0,52.0,-84.0
2700,89.0,-958.0,223.0,5.0,56.0,-88.0
2701,81.0,-968.0,223.0,3.0,60.0,-96.0
2702,83.0,-930.0,240.0,-12.0,63.0,-97.0
2703,108.0,-976.0,225.0,-111.0,-30.0,-111.0
2704,120.0,-980.0,218.0,-122.0,-29.0,-111.0
2705,104.0,-975.0,215.0,-130.0,-22.0,-109.0
2706,102.0,-964.0,214.0,-136.0,-29.0,-113.0
2707,111.0,-972.0,204.0,-137.0,-42.0,-118.0
2708,117.0,-973.0,206.0,-131.0,-50.0,-120.0
2709,130.0,-971.0,203.0,-124.0,-58.0,-115.0
2710,134.0,-965.0,208.0,-115.0,-60.0,-101.0
2711,130.0,-961.0,206.0,-109.0,-62.0,-88.0
2712,130.0,-955.0,203.0,-100.0,-67.0,-75.0
2713,112.0,-957.0,202.0,-88.0,-74.0,-61.0
2714,147.0,-979.0,192.0,56.0,-110.0,85.0
2715,135.0,-977.0,195.0,60.0,-103.0,93.0
2716,120.0,-980.0,198.0,60.0,-100.0,94.0
2717,108.0,-976.0,202.0,59.0,-100.0,87.0
2718,101.0,-985.0,207.0,56.0,-106.0,77.0
2719,110.0,-982.0,200.0,53.0,-116.0,65.0
2720,122.0,-958.0,203.0,60.0,-124.0,60.0
2721,108.0,-964.0,202.0,65.0,-127.0,68.0
2722,102.0,-975.0,206.0,72.0,-141.0,71.0
2723,115.0,-978.0,205.0,77.0,-162.0,76.0
2724,143.0,-977.0,199.0,84.0,-179.0,91.0
2725,63.0,-1012.0,236.0,188.0,-130.0,125.0
2726,-189.0,-1223.0,281.0,283.0,-421.0,417.0
2727,37.0,-1118.0,251.0,587.0,-653.0,891.0
2728,44.0,-1023.0,243.0,640.0,-562.0,991.0
2729,-4.0,-1016.0,229.0,594.0,-484.0,1017.0
2730,-28.0,-916.0,298.0,544.0,-532.0,893.0
2731,-1.0,-988.0,272.0,401.0,-588.0,664.0
2732,-210.0,-1072.0,354.0,314.0,-497.0,599.0
2733,-33.0,-968.0,313.0,325.0,-656.0,779.0
2734,-40.0,-880.0,274.0,236.0,-683.0,919.0
2735,-128.0,-914.0,225.0,42.0,-693.0,1056.0
2736,-98.0,-932.0,193.0,-113.0,-812.0,1218.0
2737,36.0,-956.0,117.0,-240.0,-967.0,1287.0
2738,105.0,-838.0,-496.0,37.0,-4370.0,946.0
2739,142.0,-860.0,-479.0,-61.0,-4287.0,1024.0
2740,175.0,-901.0,-450.0,-161.0,-4169.0,1095.0
2741,199.0,-930.0,-412.0,-246.0,-4032.0,1151.0
2742,225.0,-953.0,-371.0,-322.0,-3895.0,1196.0
2743,253.0,-976.0,-346.0,-394.0,-3766.0,1229.0
2744,260.0,-988.0,-320.0,-463.0,-3646.0,1236.0
2745,233.0,-1016.0,-294.0,-532.0,-3555.0,1228.0
2746,193.0,-1036.0,-258.0,-591.0,-3521.0,1213.0
2747,143.0,-1067.0,-215.0,-646.0,-3562.0,1180.0
2748,118.0,-1099.0,-173.0,-686.0,-3684.0,1127.0
2749,834.0,-1004.0,196.0,-190.0,-4441.0,650.0
2750,1092.0,-958.0,206.0,-131.0,-4142.0,588.0
2751,1340.0,-897.0,194.0,-54.0,-3833.0,437.0
2752,1432.0,-806.0,194.0,19.0,-3471.0,195.0
2753,1353.0,-715.0,178.0,83.0,-3074.0,-42.0
2754,1103.0,-692.0,224.0,123.0,-2640.0,-199.0
2755,881.0,-774.0,290.0,163.0,-2290.0,-279.0
2756,875.0,-857.0,346.0,288.0,-2029.0,-378.0
2757,116.0,-988.0,222.0,68.0,-33.0,-211.0
2758,108.0,-973.0,208.0,-28.0,-39.0,-251.0
2759,130.0,-962.0,212.0,-5.0,-16.0,-27.0
2760,146.0,-948.0,218.0,59.0,9.0,112.0
2761,119.0,-950.0,225.0,51.0,16.0,123.0
2762,115.0,-956.0,218.0,33.0,16.0,110.0
2763,116.0,-950.0,222.0,23.0,18.0,93.0
2764,123.0,-951.0,224.0,9.0,22.0,78.0
2765,124.0,-973.0,216.0,-9.0,33.0,63.0
2766,137.0,-986.0,197.0,-13.0,42.0,49.0
2767,124.0,-968.0,216.0,2.0,51.0,48.0
2768,125.0,-978.0,207.0,-2.0,55.0,44.0
2769,122.0,-986.0,204.0,-4.0,60.0,38.0
2770,123.0,-985.0,203.0,0.0,64.0,36.0
2771,133.0,-1052.0,166.0,-213.0,35.0,107.0
2772,123.0,-1056.0,163.0,-180.0,37.0,143.0
2773,133.0,-1025.0,203.0,-147.0,22.0,182.0
2774,87.0,-1028.0,201.0,-156.0,14.0,228.0
2775,71.0,-1028.0,200.0,-167.0,-11.0,247.0
2776,62.0,-1007.0,226.0,-170.0,-42.0,257.0
2777,70.0,-1007.0,235.0,-203.0,-77.0,265.0
2778,-49.0,-1046.0,247.0,-251.0,-97.0,281.0
2779,-86.0,-1077.0,232.0,-276.0,-206.0,255.0
2780,-84.0,-1122.0,201.0,-260.0,-345.0,229.0
2781,-69.0,-1166.0,183.0,-186.0,-487.0,262.0
2782,534.0,-895.0,264.0,605.0,-208.0,-391.0
2783,349.0,-749.0,419.0,816.0,112.0,-428.0
2784,290.0,-770.0,429.0,697.0,259.0,-259.0
2785,147.0,-730.0,450.0,556.0,409.0,-21.0
2786,-52.0,-783.0,485.0,368.0,490.0,177.0
2787,26.0,-846.0,449.0,188.0,375.0,260.0
2788,54.0,-977.0,390.0,32.0,318.0,299.0
2789,-43.0,-1119.0,330.0,-95.0,332.0,267.0
2790,-90.0,-1245.0,194.0,-176.0,345.0,142.0
2791,22.0,-966.0,235.0,-107.0,62.0,-88.0
2792,19.0,-970.0,236.0,-109.0,56.0,-92.0
2793,9.0,-983.0,227.0,-114.0,52.0,-99.0
2794,-5.0,-997.0,208.0,-112.0,46.0,-132.0
2795,6.0,-995.0,226.0,-106.0,45.0,-189.0
2796,35.0,-1000.0,211.0,-113.0,50.0,-232.0
2797,52.0,-978.0,218.0,-108.0,61.0,-246.0
2798,37.0,-947.0,236.0,-102.0,73.0,-239.0
2799,43.0,-952.0,222.0,-114.0,73.0,-240.0
2800,32.0,-947.0,236.0,-117.0,69.0,-247.0
2801,43.0,-952.0,231.0,-130.0,58.0,-263.0
2802,111.0,-989.0,178.0,-11.0,35.0,-75.0
2803,104.0,-978.0,195.0,11.0,39.0,-59.0
2804,88.0,-978.0,205.0,18.0,43.0,-49.0
2805,98.0,-992.0,195.0,15.0,42.0,-51.0
2806,94.0,-991.0,192.0,27.0,48.0,-48.0
2807,73.0,-978.0,209.0,44.0,51.0,-45.0
2808,77.0,-975.0,214.0,46.0,41.0,-54.0
2809,87.0,-981.0,202.0,43.0,33.0,-60.0
2810,95.0,-995.0,200.0,45.0,32.0,-62.0
2811,-180.0,-974.0,355.0,78.0,-210.0,-286.0
2812,-310.0,-1039.0,381.0,33.0,-420.0,-148.0
2813,-379.0,-1159.0,387.0,63.0,-636.0,245.0
2814,-503.0,-1114.0,398.0,245.0,-768.0,717.0
2815,-425.0,-989.0,400.0,396.0,-1015.0,862.0
2816,-475.0,-967.0,418.0,397.0,-1255.0,831.0
2817,-425.0,-961.0,339.0,357.0,-1549.0,754.0
2818,-239.0,-913.0,214.0,344.0,-1848.0,671.0
2819,-47.0,-839.0,106.0,321.0,-2023.0,601.0
2820,-68.0,-701.0,79.0,290.0,-2041.0,590.0
2821,-47.0,-629.0,39.0,138.0,-2093.0,590.0
2822,219.0,-822.0,-120.0,-205.0,-2252.0,545.0
2823,70.0,-1055.0,187.0,-87.0,127.0,-180.0
2824,95.0,-1072.0,187.0,-74.0,135.0,-210.0
2825,100.0,-1058.0,162.0,-42.0,150.0,-224.0
2826,105.0,-1046.0,183.0,2.0,157.0,-221.0
2827,132.0,-1005.0,190.0,38.0,151.0,-200.0
2828,155.0,-963.0,226.0,58.0,142.0,-148.0
2829,148.0,-942.0,237.0,46.0,141.0,-69.0
2830,124.0,-937.0,230.0,21.0,145.0,7.0
2831,57.0,-912.0,254.0,11.0,158.0,55.0
2832,9.0,-925.0,259.0,-22.0,158.0,52.0
2833,1.0,-951.0,235.0,-58.0,141.0,11.0
2834,3.0,-976.0,213.0,-75.0,125.0,-39.0
2835,42.0,-976.0,212.0,-73.0,108.0,-88.0
2836,42.0,-985.0,223.0,-80.0,112.0,-119.0
2837,53.0,-989.0,219.0,-95.0,116.0,-141.0
2838,63.0,-1007.0,195.0,-98.0,121.0,-173.0
2839,87.0,-991.0,203.0,-19.0,34.0,-209.0
2840,105.0,-989.0,194.0,-4.0,29.0,-211.0
2841,115.0,-999.0,180.0,12.0,28.0,-203.0
2842,125.0,-976.0,197.0,39.0,28.0,-193.0
2843,106.0,-965.0,214.0,53.0,33.0,-174.0
2844,90.0,-958.0,224.0,47.0,37.0,-169.0
2845,101.0,-952.0,227.0,31.0,36.0,-173.0
2846,105.0,-952.0,230.0,14.0,37.0,-170.0
2847,121.0,-955.0,213.0,-3.0,36.0,-161.0
2848,114.0,-975.0,204.0,-13.0,44.0,-151.0
2849,121.0,-981.0,199.0,-14.0,47.0,-150.0
2850,172.0,-991.0,187.0,24.0,74.0,33.0
2851,147.0,-1013.0,200.0,107.0,117.0,220.0
2852,80.0,-906.0,238.0,-21.0,114.0,-5.0
2853,104.0,-919.0,230.0,-42.0,122.0,-8.0
2854,109.0,-912.0,237.0,-53.0,137.0,4.0
2855,92.0,-917.0,240.0,-70.0,156.0,20.0
2856,83.0,-924.0,238.0,-82.0,162.0,37.0
2857,72.0,-936.0,230.0,-85.0,164.0,53.0
2858,74.0,-953.0,219.0,-82.0,162.0,58.0
2859,86.0,-961.0,209.0,-71.0,158.0,62.0
2860,95.0,-959.0,214.0,-58.0,163.0,65.0
2861,74.0,-953.0,230.0,-52.0,179.0,74.0
2862,44.0,-962.0,237.0,-58.0,185.0,76.0
2863,103.0,-998.0,235.0,-84.0,104.0,-41.0
2864,101.0,-1045.0,223.0,-92.0,120.0,-19.0
2865,89.0,-1117.0,167.0,-81.0,132.0,-4.0
2866,54.0,-1116.0,143.0,-6.0,128.0,-13.0
2867,54.0,-1041.0,207.0,72.0,94.0,-37.0
2868,79.0,-1048.0,224.0,61.0,62.0,-48.0
2869,98.0,-1064.0,213.0,34.0,53.0,-43.0
2870,93.0,-1072.0,219.0,26.0,56.0,-26.0
2871,67.0,-1079.0,225.0,20.0,59.0,-21.0
2872,58.0,-1107.0,227.0,11.0,52.0,-45.0
2873,97.0,-1161.0,217.0,20.0,44.0,-85.0
2874,112.0,-1344.0,118.0,2319.0,297.0,-1436.0
2875,417.0,-246.0,-642.0,161.0,887.0,6.0
2876,-337.0,-831.0,-692.0,-2879.0,-81.0,1115.0
2877,-289.0,-1019.0,-607.0,-3085.0,-209.0,1168.0
2878,-268.0,-1133.0,-524.0,-3211.0,-334.0,1204.0
2879,-209.0,-1194.0,-484.0,-3322.0,-485.0,1236.0
2880,-99.0,-1317.0,-454.0,-3480.0,-645.0,1289.0
2881,38.0,-1526.0,-388.0,-3628.0,-780.0,1325.0
2882,167.0,-1719.0,-263.0,-3684.0,-869.0,1296.0
2883,283.0,-1903.0,-117.0,-3675.0,-920.0,1216.0
2884,463.0,-1959.0,20.0,-3587.0,-955.0,1125.0
2885,635.0,-1959.0,150.0,-3376.0,-902.0,1018.0
2886,721.0,-1927.0,269.0,-3096.0,-753.0,847.0
2887,-231.0,-855.0,0.0,-1.0,-678.0,-76.0
2888,16.0,-852.0,19.0,142.0,104.0,-40.0
2889,-411.0,-1585.0,-557.0,1246.0,-542.0,-187.0
2890,-707.0,-1942.0,-1052.0,1673.0,-480.0,-569.0
2891,-677.0,-1959.0,-1419.0,2269.0,-690.0,-1167.0
