sequence,AccelerometerX,AccelerometerY,AccelerometerZ,GyroscopeX,GyroscopeY,GyroscopeZ
73,176.0,-953.0,238.0,-6.0,72.0,-19.0
74,177.0,-952.0,237.0,-6.0,72.0,-18.0
75,175.0,-956.0,237.0,-7.0,73.0,-19.0
76,178.0,-951.0,238.0,-5.0,71.0,-19.0
77,176.0,-954.0,236.0,-6.0,72.0,-18.0
78,176.0,-954.0,236.0,-5.0,71.0,-19.0
79,175.0,-952.0,238.0,-5.0,72.0,-19.0
80,175.0,-953.0,235.0,-5.0,72.0,-20.0
81,177.0,-949.0,237.0,-4.0,72.0,-19.0
82,173.0,-953.0,236.0,-6.0,72.0,-20.0
83,175.0,-949.0,238.0,-5.0,70.0,-22.0
84,178.0,-952.0,236.0,-6.0,70.0,-23.0
85,177.0,-953.0,236.0,-7.0,71.0,-22.0
86,176.0,-953.0,236.0,-5.0,72.0,-21.0
87,176.0,-952.0,238.0,-6.0,72.0,-21.0
88,175.0,-953.0,235.0,-7.0,73.0,-21.0
89,175.0,-951.0,236.0,-7.0,73.0,-20.0
90,171.0,-955.0,235.0,-8.0,74.0,-21.0
91,175.0,-951.0,235.0,-6.0,72.0,-23.0
92,176.0,-955.0,235.0,-7.0,70.0,-28.0
93,179.0,-952.0,235.0,-6.0,69.0,-25.0
94,174.0,-953.0,234.0,-7.0,71.0,-23.0
95,177.0,-952.0,236.0,-6.0,70.0,-24.0
96,176.0,-953.0,236.0,-7.0,70.0,-24.0
97,175.0,-952.0,234.0,-6.0,70.0,-24.0
98,175.0,-952.0,237.0,-7.0,70.0,-24.0
99,174.0,-954.0,235.0,-7.0,71.0,-24.0
100,176.0,-954.0,235.0,-6.0,70.0,-24.0
101,178.0,-953.0,235.0,-5.0,67.0,-26.0
102,174.0,-951.0,235.0,-10.0,69.0,-33.0
103,174.0,-951.0,235.0,-10.0,69.0,-36.0
104,178.0,-950.0,235.0,-11.0,66.0,-37.0
105,176.0,-952.0,235.0,-13.0,67.0,-35.0
106,179.0,-953.0,234.0,-13.0,66.0,-35.0
107,176.0,-955.0,235.0,-14.0,66.0,-34.0
108,178.0,-955.0,232.0,-12.0,67.0,-35.0
109,177.0,-951.0,236.0,-10.0,67.0,-35.0
110,176.0,-954.0,235.0,-13.0,67.0,-35.0
111,177.0,-953.0,234.0,-11.0,67.0,-34.0
112,183.0,-951.0,233.0,-5.0,67.0,-32.0
113,180.0,-950.0,233.0,-6.0,68.0,-30.0
114,185.0,-952.0,231.0,-9.0,67.0,-30.0
115,182.0,-952.0,232.0,-9.0,68.0,-27.0
116,182.0,-953.0,232.0,-10.0,68.0,-26.0
117,182.0,-955.0,231.0,-10.0,69.0,-26.0
118,181.0,-957.0,228.0,-9.0,69.0,-26.0
119,183.0,-953.0,231.0,-5.0,69.0,-25.0
120,180.0,-954.0,231.0,-5.0,70.0,-25.0
121,182.0,-951.0,232.0,-4.0,69.0,-25.0
122,180.0,-951.0,233.0,-7.0,69.0,-25.0
123,183.0,-953.0,231.0,-7.0,69.0,-25.0
124,182.0,-951.0,232.0,-8.0,69.0,-24.0
125,181.0,-955.0,229.0,-8.0,70.0,-25.0
126,182.0,-953.0,230.0,-5.0,69.0,-25.0
127,185.0,-952.0,231.0,-5.0,67.0,-25.0
128,182.0,-954.0,230.0,-3.0,70.0,-22.0
129,181.0,-954.0,230.0,-4.0,72.0,-22.0
130,180.0,-955.0,230.0,-2.0,72.0,-22.0
131,180.0,-953.0,231.0,-1.0,72.0,-22.0
132,180.0,-953.0,232.0,-1.0,71.0,-23.0
133,184.0,-952.0,231.0,-1.0,71.0,-22.0
134,178.0,-952.0,232.0,-1.0,73.0,-20.0
135,182.0,-951.0,232.0,-2.0,72.0,-21.0
136,177.0,-951.0,233.0,-3.0,72.0,-22.0
137,182.0,-954.0,232.0,-5.0,71.0,-24.0
138,181.0,-952.0,232.0,-5.0,72.0,-23.0
139,178.0,-951.0,231.0,-2.0,71.0,-24.0
140,179.0,-952.0,231.0,-3.0,71.0,-26.0
141,181.0,-951.0,231.0,-3.0,70.0,-26.0
142,181.0,-956.0,230.0,-5.0,71.0,-25.0
143,185.0,-954.0,231.0,-3.0,70.0,-24.0
144,179.0,-955.0,230.0,-2.0,71.0,-21.0
145,183.0,-955.0,231.0,0.0,69.0,-21.0
146,180.0,-954.0,231.0,0.0,70.0,-21.0
147,181.0,-954.0,230.0,1.0,70.0,-20.0
148,177.0,-948.0,234.0,3.0,72.0,-20.0
149,175.0,-952.0,233.0,0.0,70.0,-22.0
150,176.0,-953.0,232.0,-2.0,67.0,-27.0
151,181.0,-949.0,235.0,-7.0,68.0,-26.0
152,180.0,-952.0,232.0,-9.0,69.0,-27.0
153,183.0,-950.0,232.0,-10.0,68.0,-27.0
154,180.0,-955.0,230.0,-12.0,69.0,-27.0
155,182.0,-952.0,231.0,-10.0,69.0,-27.0
156,179.0,-953.0,232.0,-10.0,70.0,-26.0
157,180.0,-955.0,230.0,-9.0,67.0,-27.0
158,180.0,-952.0,232.0,-8.0,67.0,-29.0
159,182.0,-958.0,229.0,-8.0,68.0,-29.0
160,183.0,-952.0,233.0,-4.0,68.0,-29.0
161,182.0,-954.0,233.0,-6.0,69.0,-30.0
162,182.0,-953.0,233.0,-7.0,69.0,-28.0
163,182.0,-954.0,231.0,-3.0,70.0,-25.0
164,182.0,-950.0,231.0,-3.0,70.0,-25.0
165,182.0,-952.0,232.0,-3.0,70.0,-26.0
166,184.0,-950.0,231.0,-3.0,68.0,-26.0
167,183.0,-953.0,232.0,-4.0,68.0,-24.0
168,186.0,-952.0,231.0,-4.0,66.0,-23.0
169,183.0,-953.0,231.0,-4.0,68.0,-21.0
170,184.0,-951.0,232.0,-2.0,67.0,-20.0
171,181.0,-950.0,233.0,-3.0,68.0,-19.0
172,183.0,-951.0,232.0,-6.0,68.0,-20.0
173,184.0,-951.0,233.0,-6.0,68.0,-20.0
174,183.0,-951.0,231.0,1.0,71.0,-16.0
175,181.0,-951.0,233.0,-2.0,69.0,-27.0
176,182.0,-951.0,231.0,-3.0,68.0,-28.0
177,182.0,-950.0,232.0,-3.0,69.0,-27.0
178,183.0,-953.0,233.0,-5.0,68.0,-26.0
179,185.0,-951.0,232.0,-5.0,68.0,-26.0
180,183.0,-955.0,231.0,-7.0,69.0,-24.0
181,180.0,-950.0,232.0,-6.0,69.0,-24.0
182,179.0,-953.0,233.0,-8.0,68.0,-25.0
183,183.0,-952.0,232.0,-8.0,66.0,-28.0
184,184.0,-953.0,231.0,-9.0,67.0,-27.0
185,184.0,-955.0,229.0,-9.0,67.0,-26.0
186,186.0,-954.0,230.0,-4.0,70.0,-20.0
187,188.0,-952.0,231.0,-3.0,70.0,-17.0
188,185.0,-953.0,230.0,-3.0,72.0,-15.0
189,179.0,-950.0,232.0,-3.0,73.0,-13.0
190,176.0,-953.0,231.0,-4.0,74.0,-16.0
191,182.0,-948.0,233.0,-4.0,72.0,-21.0
192,182.0,-952.0,232.0,-6.0,72.0,-22.0
193,186.0,-952.0,231.0,-6.0,72.0,-22.0
194,184.0,-953.0,231.0,-7.0,73.0,-19.0
195,182.0,-953.0,229.0,-8.0,73.0,-17.0
196,180.0,-952.0,232.0,-4.0,76.0,-15.0
197,178.0,-951.0,232.0,11.0,72.0,-1.0
198,178.0,-956.0,231.0,9.0,74.0,-1.0
199,178.0,-953.0,231.0,12.0,73.0,0.0
200,176.0,-951.0,231.0,12.0,73.0,1.0
201,178.0,-949.0,233.0,15.0,72.0,2.0
202,175.0,-953.0,231.0,14.0,72.0,3.0
203,175.0,-954.0,232.0,15.0,72.0,2.0
204,176.0,-954.0,233.0,15.0,71.0,2.0
205,172.0,-956.0,231.0,16.0,70.0,1.0
206,180.0,-953.0,233.0,19.0,68.0,0.0
207,174.0,-953.0,235.0,18.0,70.0,2.0
208,171.0,-953.0,235.0,17.0,69.0,3.0
209,173.0,-948.0,235.0,17.0,67.0,1.0
210,169.0,-952.0,235.0,17.0,67.0,0.0
211,174.0,-953.0,234.0,18.0,64.0,-3.0
212,171.0,-956.0,238.0,16.0,62.0,-2.0
213,166.0,-953.0,239.0,-1.0,74.0,4.0
214,167.0,-954.0,240.0,0.0,75.0,4.0
215,164.0,-956.0,239.0,0.0,76.0,4.0
216,165.0,-954.0,241.0,1.0,75.0,4.0
217,166.0,-956.0,239.0,-1.0,76.0,3.0
218,167.0,-953.0,240.0,0.0,77.0,3.0
219,158.0,-953.0,240.0,-1.0,79.0,2.0
220,162.0,-953.0,241.0,-1.0,78.0,-2.0
221,164.0,-955.0,240.0,-2.0,77.0,-3.0
222,161.0,-957.0,239.0,-2.0,78.0,-5.0
223,162.0,-954.0,242.0,-1.0,77.0,-7.0
224,161.0,-952.0,242.0,-3.0,73.0,-16.0
225,156.0,-957.0,240.0,-14.0,81.0,-6.0
226,155.0,-954.0,240.0,-11.0,79.0,-8.0
227,148.0,-954.0,241.0,-11.0,77.0,-13.0
228,156.0,-953.0,240.0,-10.0,71.0,-20.0
229,159.0,-952.0,242.0,-8.0,69.0,-23.0
230,157.0,-957.0,238.0,-8.0,68.0,-22.0
231,160.0,-954.0,240.0,-3.0,68.0,-22.0
232,157.0,-958.0,239.0,-2.0,69.0,-24.0
233,166.0,-955.0,240.0,0.0,67.0,-26.0
234,165.0,-956.0,240.0,0.0,69.0,-20.0
235,165.0,-953.0,240.0,2.0,71.0,-16.0
236,166.0,-953.0,240.0,2.0,73.0,-11.0
237,164.0,-954.0,239.0,1.0,74.0,-5.0
238,167.0,-952.0,241.0,2.0,75.0,2.0
239,156.0,-954.0,242.0,0.0,78.0,6.0
240,170.0,-955.0,238.0,-6.0,69.0,-10.0
241,157.0,-957.0,238.0,-7.0,74.0,-3.0
242,151.0,-956.0,240.0,-4.0,74.0,-2.0
243,146.0,-959.0,240.0,-6.0,73.0,-7.0
244,152.0,-961.0,238.0,-6.0,71.0,-17.0
245,157.0,-959.0,239.0,-6.0,70.0,-24.0
246,157.0,-960.0,238.0,-8.0,70.0,-25.0
247,157.0,-955.0,241.0,-7.0,70.0,-26.0
248,154.0,-953.0,240.0,-8.0,70.0,-26.0
249,158.0,-947.0,241.0,-6.0,69.0,-25.0
250,166.0,-956.0,238.0,-7.0,69.0,-19.0
251,150.0,-957.0,239.0,-11.0,67.0,-41.0
252,157.0,-957.0,238.0,-11.0,65.0,-44.0
253,160.0,-955.0,240.0,-12.0,66.0,-44.0
254,162.0,-955.0,237.0,-11.0,67.0,-39.0
255,162.0,-953.0,238.0,-10.0,67.0,-33.0
256,157.0,-953.0,239.0,-7.0,68.0,-27.0
257,161.0,-951.0,239.0,-4.0,67.0,-23.0
258,153.0,-954.0,239.0,-3.0,67.0,-20.0
259,156.0,-954.0,238.0,1.0,64.0,-17.0
260,155.0,-957.0,237.0,4.0,64.0,-17.0
261,157.0,-961.0,237.0,7.0,63.0,-17.0
262,157.0,-957.0,239.0,9.0,63.0,-17.0
263,157.0,-959.0,239.0,9.0,63.0,-18.0
264,159.0,-956.0,240.0,10.0,63.0,-18.0
265,156.0,-958.0,237.0,8.0,65.0,-18.0
266,157.0,-953.0,241.0,6.0,66.0,-16.0
267,162.0,-953.0,239.0,-8.0,65.0,-37.0
268,157.0,-956.0,240.0,-11.0,67.0,-34.0
269,159.0,-952.0,242.0,-10.0,67.0,-32.0
270,157.0,-955.0,239.0,-13.0,69.0,-31.0
271,158.0,-956.0,237.0,-10.0,70.0,-31.0
272,155.0,-955.0,241.0,-9.0,70.0,-30.0
273,160.0,-959.0,238.0,-13.0,70.0,-31.0
274,161.0,-956.0,240.0,-15.0,72.0,-31.0
275,157.0,-962.0,237.0,-22.0,74.0,-31.0
276,156.0,-954.0,240.0,-22.0,75.0,-34.0
277,152.0,-959.0,238.0,-28.0,76.0,-37.0
278,160.0,-956.0,236.0,-28.0,74.0,-42.0
279,157.0,-950.0,243.0,-29.0,74.0,-41.0
280,161.0,-953.0,238.0,-32.0,73.0,-41.0
281,160.0,-952.0,241.0,-33.0,74.0,-38.0
282,155.0,-953.0,238.0,15.0,68.0,-27.0
283,162.0,-957.0,235.0,-16.0,76.0,-15.0
284,154.0,-958.0,237.0,-13.0,77.0,-16.0
285,154.0,-958.0,234.0,-10.0,75.0,-22.0
286,155.0,-955.0,239.0,-5.0,73.0,-27.0
287,159.0,-960.0,234.0,-4.0,72.0,-31.0
288,158.0,-950.0,240.0,4.0,70.0,-32.0
289,154.0,-954.0,236.0,2.0,69.0,-32.0
290,152.0,-949.0,239.0,9.0,66.0,-36.0
291,150.0,-955.0,237.0,12.0,63.0,-42.0
292,156.0,-955.0,236.0,16.0,58.0,-51.0
293,154.0,-956.0,240.0,17.0,57.0,-58.0
294,200.0,-955.0,239.0,5.0,34.0,-40.0
295,202.0,-956.0,237.0,2.0,47.0,-24.0
296,194.0,-956.0,239.0,-2.0,63.0,-9.0
297,185.0,-956.0,241.0,-6.0,73.0,1.0
298,178.0,-954.0,243.0,-9.0,80.0,5.0
299,176.0,-957.0,240.0,-16.0,85.0,6.0
300,176.0,-952.0,242.0,-18.0,90.0,3.0
301,178.0,-956.0,241.0,-23.0,93.0,2.0
302,194.0,-951.0,240.0,-25.0,95.0,7.0
303,202.0,-953.0,240.0,-32.0,103.0,22.0
304,205.0,-952.0,238.0,-39.0,113.0,44.0
305,173.0,-952.0,239.0,-49.0,138.0,77.0
306,143.0,-956.0,235.0,-11.0,79.0,-4.0
307,148.0,-962.0,234.0,-2.0,74.0,-17.0
308,152.0,-966.0,234.0,6.0,71.0,-29.0
309,164.0,-957.0,239.0,12.0,67.0,-35.0
310,165.0,-964.0,239.0,9.0,67.0,-33.0
311,177.0,-961.0,236.0,5.0,63.0,-28.0
312,174.0,-961.0,236.0,1.0,66.0,-17.0
313,169.0,-956.0,239.0,1.0,69.0,-6.0
314,165.0,-957.0,238.0,-2.0,73.0,0.0
315,167.0,-955.0,236.0,-3.0,76.0,2.0
316,160.0,-952.0,238.0,-3.0,81.0,5.0
317,146.0,-952.0,241.0,-9.0,80.0,2.0
318,154.0,-954.0,238.0,-11.0,73.0,-5.0
319,159.0,-955.0,236.0,-10.0,74.0,-7.0
320,154.0,-953.0,238.0,-7.0,76.0,-4.0
321,156.0,-951.0,237.0,-4.0,75.0,-3.0
322,156.0,-955.0,238.0,-5.0,76.0,-2.0
323,160.0,-954.0,238.0,-4.0,76.0,0.0
324,160.0,-957.0,238.0,-5.0,78.0,4.0
325,155.0,-958.0,236.0,-6.0,82.0,6.0
326,155.0,-953.0,238.0,-3.0,83.0,7.0
327,149.0,-958.0,235.0,-4.0,83.0,6.0
328,146.0,-957.0,236.0,-4.0,73.0,-21.0
329,151.0,-954.0,239.0,-2.0,71.0,-25.0
330,150.0,-955.0,239.0,-3.0,71.0,-25.0
331,152.0,-953.0,238.0,-2.0,69.0,-25.0
332,148.0,-956.0,239.0,-4.0,71.0,-26.0
333,151.0,-956.0,238.0,-5.0,69.0,-29.0
334,151.0,-955.0,239.0,-6.0,69.0,-30.0
335,153.0,-961.0,235.0,-9.0,69.0,-31.0
336,150.0,-957.0,237.0,-7.0,71.0,-32.0
337,147.0,-957.0,237.0,-7.0,70.0,-34.0
338,151.0,-953.0,238.0,-7.0,67.0,-38.0
339,157.0,-954.0,236.0,-20.0,66.0,-56.0
340,160.0,-952.0,237.0,-28.0,66.0,-53.0
341,162.0,-958.0,229.0,-11.0,63.0,-82.0
342,166.0,-961.0,230.0,-9.0,59.0,-81.0
343,168.0,-956.0,228.0,-4.0,58.0,-79.0
344,169.0,-954.0,232.0,1.0,55.0,-74.0
345,171.0,-961.0,227.0,-1.0,53.0,-68.0
346,177.0,-964.0,224.0,3.0,54.0,-63.0
347,167.0,-956.0,231.0,12.0,57.0,-58.0
348,165.0,-948.0,243.0,25.0,-59.0,-148.0
349,193.0,-950.0,234.0,18.0,-70.0,-162.0
350,211.0,-956.0,224.0,12.0,-66.0,-160.0
351,208.0,-955.0,228.0,18.0,-52.0,-149.0
352,213.0,-946.0,232.0,23.0,-42.0,-141.0
353,198.0,-949.0,232.0,16.0,-27.0,-130.0
354,190.0,-947.0,238.0,21.0,-24.0,-125.0
355,193.0,-950.0,235.0,16.0,-24.0,-129.0
356,201.0,-949.0,238.0,16.0,-22.0,-139.0
357,219.0,-965.0,218.0,1.0,-14.0,-147.0
358,206.0,-971.0,218.0,13.0,5.0,-143.0
359,226.0,-952.0,229.0,77.0,57.0,-27.0
360,206.0,-945.0,244.0,11.0,78.0,-27.0
361,206.0,-953.0,235.0,13.0,86.0,-33.0
362,202.0,-960.0,234.0,27.0,99.0,-45.0
363,216.0,-952.0,239.0,47.0,106.0,-56.0
364,225.0,-952.0,238.0,52.0,116.0,-50.0
365,226.0,-944.0,245.0,60.0,123.0,-34.0
366,220.0,-944.0,247.0,60.0,127.0,-14.0
367,219.0,-940.0,252.0,63.0,123.0,5.0
368,221.0,-952.0,241.0,56.0,121.0,22.0
369,214.0,-950.0,247.0,67.0,120.0,36.0
370,195.0,-947.0,253.0,73.0,119.0,44.0
371,228.0,-955.0,255.0,88.0,129.0,28.0
372,179.0,-975.0,281.0,88.0,183.0,112.0
373,176.0,-981.0,277.0,95.0,188.0,108.0
374,168.0,-982.0,281.0,107.0,196.0,104.0
375,182.0,-997.0,285.0,117.0,190.0,101.0
376,190.0,-1035.0,269.0,122.0,189.0,111.0
377,173.0,-1053.0,259.0,156.0,194.0,129.0
378,206.0,-1034.0,296.0,219.0,172.0,147.0
379,227.0,-1020.0,295.0,246.0,173.0,181.0
380,222.0,-1033.0,311.0,264.0,201.0,220.0
381,212.0,-1057.0,324.0,285.0,224.0,241.0
382,187.0,-1096.0,334.0,325.0,249.0,244.0
383,-158.0,-1140.0,448.0,2210.0,-36.0,22.0
384,70.0,-275.0,-348.0,175.0,-920.0,829.0
385,6.0,-294.0,-326.0,-179.0,-943.0,780.0
386,13.0,-343.0,-309.0,-508.0,-1044.0,796.0
387,38.0,-319.0,-275.0,-754.0,-1157.0,827.0
388,110.0,-356.0,-260.0,-1056.0,-1255.0,826.0
389,207.0,-482.0,-236.0,-1558.0,-1310.0,840.0
390,237.0,-544.0,-219.0,-1749.0,-1277.0,848.0
391,214.0,-595.0,-198.0,-1905.0,-1211.0,880.0
392,159.0,-678.0,-170.0,-2059.0,-1169.0,927.0
393,172.0,-757.0,-176.0,-2186.0,-1193.0,975.0
394,169.0,-778.0,-183.0,-2267.0,-1221.0,972.0
395,97.0,-838.0,-151.0,-2388.0,-1280.0,889.0
396,203.0,-960.0,-144.0,-2530.0,-1497.0,825.0
397,775.0,-1421.0,205.0,-2517.0,-1366.0,748.0
398,698.0,-1495.0,277.0,-2483.0,-1224.0,731.0
399,657.0,-1525.0,344.0,-2397.0,-1142.0,715.0
400,652.0,-1513.0,410.0,-2268.0,-1095.0,696.0
401,702.0,-1464.0,463.0,-2117.0,-1064.0,647.0
402,693.0,-1447.0,498.0,-1973.0,-985.0,578.0
403,647.0,-1384.0,520.0,-1802.0,-891.0,523.0
404,561.0,-1303.0,514.0,-1656.0,-800.0,460.0
405,625.0,-1008.0,777.0,-707.0,-1009.0,-147.0
406,-28.0,-1277.0,272.0,204.0,285.0,320.0
407,287.0,-926.0,149.0,98.0,40.0,-342.0
408,236.0,-957.0,137.0,102.0,82.0,-278.0
409,247.0,-950.0,146.0,160.0,80.0,-244.0
410,220.0,-931.0,175.0,193.0,88.0,-218.0
411,184.0,-945.0,175.0,174.0,83.0,-210.0
412,159.0,-985.0,167.0,143.0,79.0,-249.0
413,168.0,-976.0,183.0,151.0,68.0,-314.0
414,208.0,-970.0,155.0,123.0,60.0,-365.0
415,224.0,-947.0,168.0,137.0,63.0,-389.0
416,267.0,-943.0,165.0,136.0,62.0,-390.0
417,285.0,-925.0,177.0,146.0,67.0,-355.0
418,279.0,-952.0,173.0,15.0,83.0,-206.0
419,319.0,-931.0,167.0,48.0,113.0,-134.0
420,309.0,-922.0,193.0,63.0,132.0,-125.0
421,300.0,-927.0,195.0,56.0,148.0,-116.0
422,298.0,-937.0,187.0,52.0,163.0,-111.0
423,277.0,-930.0,184.0,64.0,174.0,-110.0
424,258.0,-920.0,198.0,82.0,170.0,-115.0
425,263.0,-945.0,180.0,73.0,152.0,-129.0
426,298.0,-951.0,188.0,88.0,131.0,-143.0
427,328.0,-953.0,192.0,102.0,125.0,-144.0
428,333.0,-962.0,187.0,108.0,144.0,-142.0
429,334.0,-969.0,194.0,124.0,160.0,-140.0
430,234.0,-986.0,259.0,387.0,308.0,-480.0
431,244.0,-1009.0,255.0,396.0,261.0,-507.0
432,296.0,-991.0,259.0,438.0,202.0,-539.0
433,368.0,-945.0,263.0,472.0,169.0,-558.0
434,375.0,-937.0,255.0,484.0,184.0,-565.0
435,433.0,-935.0,251.0,492.0,178.0,-576.0
436,475.0,-927.0,258.0,509.0,205.0,-583.0
437,491.0,-934.0,256.0,519.0,255.0,-586.0
438,541.0,-932.0,253.0,539.0,300.0,-590.0
439,589.0,-922.0,247.0,560.0,366.0,-584.0
440,619.0,-959.0,265.0,564.0,445.0,-584.0
441,7.0,-1091.0,204.0,2202.0,1108.0,-895.0
442,504.0,671.0,0.0,1125.0,-191.0,167.0
443,730.0,362.0,-193.0,-394.0,131.0,52.0
444,353.0,-122.0,-205.0,-1553.0,959.0,4.0
445,0.0,-424.0,-271.0,-2128.0,1313.0,304.0
446,-22.0,-458.0,-268.0,-2245.0,1086.0,777.0
447,198.0,-432.0,-284.0,-2320.0,879.0,1035.0
448,191.0,-473.0,-325.0,-2484.0,1124.0,1034.0
449,-51.0,-480.0,-335.0,-2561.0,1438.0,969.0
450,-388.0,-372.0,-340.0,-2608.0,1517.0,1060.0
451,-444.0,-272.0,-380.0,-2830.0,1161.0,1331.0
452,-204.0,-294.0,-442.0,-3243.0,688.0,1519.0
453,357.0,-1415.0,363.0,-3239.0,-955.0,784.0
454,211.0,-1136.0,473.0,-2620.0,-322.0,298.0
455,331.0,-1446.0,496.0,-2896.0,-420.0,472.0
456,429.0,-1607.0,589.0,-2786.0,-403.0,489.0
457,493.0,-1487.0,731.0,-2417.0,-323.0,333.0
458,537.0,-1377.0,832.0,-2157.0,-221.0,148.0
459,522.0,-1277.0,956.0,-1960.0,-82.0,-4.0
460,455.0,-1232.0,1068.0,-1816.0,84.0,-78.0
461,460.0,-1231.0,1108.0,-1656.0,236.0,-78.0
462,203.0,-898.0,245.0,3179.0,107.0,-1.0
463,155.0,-467.0,740.0,2557.0,145.0,-78.0
464,115.0,-658.0,466.0,1370.0,367.0,-199.0
465,95.0,-1018.0,1.0,729.0,473.0,-295.0
466,29.0,-1053.0,-14.0,795.0,447.0,-408.0
467,76.0,-963.0,103.0,901.0,299.0,-504.0
468,167.0,-911.0,114.0,825.0,174.0,-553.0
469,223.0,-940.0,89.0,702.0,111.0,-532.0
470,277.0,-919.0,104.0,646.0,49.0,-479.0
471,320.0,-925.0,53.0,558.0,26.0,-391.0
472,269.0,-960.0,31.0,530.0,39.0,-265.0
473,169.0,-926.0,184.0,379.0,221.0,176.0
474,162.0,-953.0,202.0,12.0,88.0,-40.0
475,177.0,-943.0,207.0,16.0,86.0,-47.0
476,159.0,-955.0,203.0,5.0,89.0,-46.0
477,170.0,-963.0,197.0,1.0,80.0,-53.0
478,178.0,-964.0,195.0,2.0,79.0,-57.0
479,188.0,-939.0,212.0,12.0,75.0,-53.0
480,184.0,-937.0,216.0,1.0,79.0,-40.0
481,187.0,-968.0,209.0,-19.0,81.0,-30.0
482,202.0,-1021.0,166.0,-26.0,77.0,-17.0
483,196.0,-1014.0,166.0,19.0,80.0,-2.0
484,154.0,-971.0,217.0,102.0,96.0,-19.0
485,166.0,-988.0,205.0,99.0,97.0,-44.0
486,201.0,-982.0,207.0,123.0,96.0,-64.0
487,211.0,-975.0,217.0,136.0,124.0,-70.0
488,200.0,-958.0,240.0,147.0,167.0,-76.0
489,157.0,-968.0,231.0,131.0,222.0,-95.0
490,131.0,-991.0,219.0,123.0,249.0,-138.0
491,130.0,-1007.0,213.0,134.0,238.0,-191.0
492,121.0,-1026.0,219.0,149.0,232.0,-244.0
493,213.0,-1021.0,278.0,662.0,171.0,-75.0
494,248.0,-980.0,280.0,699.0,161.0,-86.0
495,247.0,-967.0,300.0,710.0,179.0,-98.0
496,225.0,-1012.0,307.0,699.0,202.0,-118.0
497,228.0,-1061.0,304.0,705.0,208.0,-149.0
498,209.0,-1166.0,317.0,725.0,215.0,-180.0
499,244.0,-1215.0,338.0,788.0,191.0,-211.0
500,280.0,-1241.0,331.0,857.0,186.0,-224.0
501,333.0,-1180.0,340.0,946.0,207.0,-182.0
502,188.0,-1058.0,612.0,1916.0,713.0,-502.0
503,-260.0,-383.0,368.0,1922.0,434.0,-50.0
504,-232.0,-130.0,284.0,1731.0,96.0,205.0
505,127.0,280.0,-13.0,1353.0,-380.0,455.0
506,301.0,580.0,-389.0,508.0,-379.0,591.0
507,-84.0,544.0,-449.0,-857.0,121.0,473.0
508,-79.0,-284.0,-376.0,-2485.0,-65.0,439.0
509,364.0,-959.0,-495.0,-2998.0,-401.0,604.0
510,170.0,-851.0,-396.0,-2282.0,41.0,849.0
511,-9.0,-397.0,-269.0,-1699.0,152.0,885.0
512,-52.0,-81.0,-265.0,-1869.0,66.0,756.0
513,-63.0,-94.0,-296.0,-2497.0,-2.0,667.0
514,26.0,-1616.0,441.0,-3364.0,-538.0,358.0
515,253.0,-1373.0,512.0,-1644.0,-291.0,484.0
516,222.0,-1171.0,534.0,-1505.0,-341.0,383.0
517,268.0,-1152.0,505.0,-1607.0,-436.0,202.0
518,329.0,-1245.0,505.0,-1699.0,-498.0,41.0
519,334.0,-1251.0,533.0,-1612.0,-468.0,-6.0
520,353.0,-1146.0,588.0,-1474.0,-430.0,25.0
521,401.0,-1117.0,611.0,-1464.0,-371.0,42.0
522,387.0,-1121.0,627.0,-1452.0,-252.0,12.0
523,305.0,-1120.0,665.0,-1380.0,-111.0,-35.0
524,248.0,-1154.0,700.0,-1285.0,-11.0,-39.0
525,126.0,-1009.0,657.0,-481.0,30.0,-95.0
526,115.0,-951.0,610.0,-364.0,-21.0,-140.0
527,103.0,-958.0,573.0,-292.0,-83.0,-195.0
528,91.0,-989.0,544.0,-206.0,-143.0,-228.0
529,76.0,-959.0,509.0,-68.0,-199.0,-221.0
530,60.0,-907.0,482.0,53.0,-256.0,-184.0
531,32.0,-921.0,447.0,112.0,-313.0,-142.0
532,280.0,-912.0,39.0,657.0,23.0,-530.0
533,126.0,-989.0,173.0,464.0,138.0,-42.0
534,128.0,-964.0,213.0,464.0,123.0,-81.0
535,142.0,-963.0,206.0,403.0,111.0,-113.0
536,144.0,-975.0,190.0,342.0,106.0,-139.0
537,127.0,-957.0,209.0,333.0,110.0,-167.0
538,134.0,-942.0,229.0,302.0,101.0,-201.0
539,141.0,-946.0,222.0,245.0,94.0,-232.0
540,152.0,-955.0,214.0,202.0,96.0,-256.0
541,152.0,-966.0,215.0,176.0,100.0,-276.0
542,188.0,-980.0,193.0,151.0,92.0,-291.0
543,202.0,-960.0,200.0,162.0,100.0,-282.0
544,182.0,-949.0,238.0,302.0,169.0,-46.0
545,145.0,-946.0,251.0,305.0,168.0,-64.0
546,144.0,-952.0,253.0,299.0,147.0,-77.0
547,168.0,-971.0,248.0,295.0,124.0,-93.0
548,188.0,-976.0,247.0,307.0,113.0,-104.0
549,242.0,-974.0,254.0,328.0,108.0,-111.0
550,265.0,-947.0,259.0,351.0,131.0,-126.0
551,245.0,-947.0,263.0,339.0,166.0,-138.0
552,216.0,-912.0,261.0,346.0,203.0,-167.0
553,164.0,-943.0,318.0,361.0,222.0,-225.0
554,265.0,-1017.0,373.0,614.0,161.0,-190.0
555,243.0,-1055.0,377.0,645.0,180.0,-202.0
556,262.0,-1071.0,373.0,694.0,180.0,-211.0
557,310.0,-1076.0,386.0,751.0,181.0,-224.0
558,357.0,-1074.0,387.0,807.0,204.0,-245.0
559,386.0,-1069.0,382.0,857.0,249.0,-272.0
560,353.0,-1066.0,394.0,910.0,317.0,-310.0
561,273.0,-1155.0,409.0,942.0,380.0,-351.0
562,216.0,-1244.0,418.0,1011.0,395.0,-368.0
563,279.0,-1268.0,413.0,1123.0,348.0,-360.0
564,375.0,-1228.0,377.0,1238.0,330.0,-369.0
565,-7.0,-646.0,511.0,1510.0,1182.0,-899.0
566,239.0,141.0,28.0,-391.0,528.0,-438.0
567,15.0,-86.0,-62.0,-1237.0,878.0,-452.0
568,-284.0,-311.0,-20.0,-1818.0,1003.0,-225.0
569,-306.0,-500.0,-22.0,-2158.0,744.0,157.0
570,-307.0,-495.0,-14.0,-2236.0,568.0,548.0
571,-236.0,-374.0,-41.0,-2301.0,378.0,789.0
572,-144.0,-342.0,-92.0,-2585.0,253.0,812.0
573,-44.0,-557.0,-142.0,-3039.0,212.0,747.0
574,-9.0,-850.0,-207.0,-3264.0,239.0,738.0
575,-112.0,-907.0,-179.0,-3010.0,342.0,775.0
576,331.0,-1439.0,191.0,-3040.0,-410.0,859.0
577,350.0,-1439.0,202.0,-3003.0,-333.0,829.0
578,351.0,-1500.0,210.0,-2977.0,-243.0,785.0
579,314.0,-1558.0,230.0,-2905.0,-142.0,736.0
580,304.0,-1575.0,257.0,-2792.0,-73.0,707.0
581,240.0,-1616.0,333.0,-2525.0,66.0,581.0
582,255.0,-1598.0,376.0,-2373.0,83.0,482.0
583,328.0,-1563.0,447.0,-2230.0,64.0,430.0
584,417.0,-1587.0,505.0,-2118.0,74.0,398.0
585,441.0,-1565.0,581.0,-1920.0,158.0,320.0
586,364.0,-1429.0,662.0,-1677.0,289.0,227.0
587,266.0,-1239.0,745.0,-1550.0,376.0,190.0
588,316.0,-1233.0,764.0,-1645.0,387.0,238.0
589,380.0,-1274.0,788.0,-1669.0,459.0,254.0
590,-29.0,-958.0,310.0,-259.0,68.0,-192.0
591,78.0,-966.0,152.0,525.0,84.0,-385.0
592,156.0,-967.0,194.0,195.0,184.0,-172.0
593,146.0,-971.0,200.0,157.0,158.0,-191.0
594,162.0,-977.0,183.0,106.0,126.0,-223.0
595,182.0,-982.0,162.0,79.0,100.0,-238.0
596,203.0,-967.0,170.0,93.0,79.0,-237.0
597,222.0,-956.0,166.0,100.0,65.0,-219.0
598,217.0,-963.0,169.0,101.0,73.0,-193.0
599,222.0,-946.0,182.0,115.0,83.0,-179.0
600,215.0,-963.0,171.0,94.0,107.0,-162.0
601,228.0,-975.0,153.0,92.0,124.0,-145.0
602,233.0,-957.0,164.0,129.0,134.0,-111.0
603,230.0,-940.0,185.0,155.0,132.0,-69.0
604,222.0,-951.0,178.0,140.0,132.0,-33.0
605,233.0,-949.0,183.0,144.0,126.0,-3.0
606,209.0,-938.0,204.0,152.0,132.0,30.0
607,229.0,-907.0,213.0,94.0,171.0,-19.0
608,187.0,-948.0,272.0,316.0,106.0,-216.0
609,211.0,-950.0,271.0,317.0,96.0,-220.0
610,244.0,-947.0,266.0,332.0,99.0,-226.0
611,241.0,-942.0,277.0,341.0,126.0,-232.0
612,240.0,-943.0,284.0,343.0,140.0,-224.0
613,232.0,-944.0,290.0,351.0,149.0,-234.0
614,233.0,-965.0,278.0,349.0,158.0,-229.0
615,249.0,-959.0,277.0,370.0,157.0,-222.0
616,255.0,-945.0,292.0,381.0,172.0,-223.0
617,225.0,-935.0,307.0,383.0,190.0,-226.0
618,221.0,-950.0,304.0,376.0,191.0,-230.0
619,420.0,-1013.0,380.0,1144.0,604.0,-747.0
620,130.0,-1139.0,619.0,1757.0,476.0,-666.0
621,197.0,-1170.0,688.0,1881.0,377.0,-592.0
622,278.0,-1053.0,660.0,2085.0,280.0,-565.0
623,321.0,-945.0,664.0,2187.0,199.0,-579.0
624,312.0,-911.0,662.0,2155.0,217.0,-604.0
625,376.0,-850.0,661.0,2108.0,68.0,-353.0
626,422.0,-800.0,639.0,2100.0,80.0,-293.0
627,340.0,-804.0,633.0,2053.0,241.0,-271.0
628,251.0,-804.0,611.0,2046.0,313.0,-243.0
629,225.0,-751.0,562.0,2110.0,276.0,-198.0
630,207.0,-659.0,519.0,2156.0,242.0,-121.0
631,240.0,-590.0,478.0,2132.0,172.0,-27.0
632,322.0,-517.0,440.0,2083.0,134.0,-20.0
633,315.0,-285.0,384.0,2073.0,283.0,-161.0
634,209.0,366.0,168.0,1360.0,540.0,-385.0
635,356.0,-1170.0,1.0,-3088.0,-1136.0,952.0
636,473.0,-1188.0,28.0,-3091.0,-1196.0,929.0
637,546.0,-1162.0,67.0,-3104.0,-1174.0,874.0
638,598.0,-1192.0,105.0,-3196.0,-1114.0,806.0
639,661.0,-1291.0,134.0,-3311.0,-1016.0,750.0
640,612.0,-1377.0,197.0,-3343.0,-836.0,707.0
641,530.0,-1443.0,250.0,-3322.0,-676.0,676.0
642,539.0,-1455.0,270.0,-3270.0,-594.0,666.0
643,541.0,-1528.0,282.0,-3248.0,-504.0,661.0
644,533.0,-1572.0,304.0,-3166.0,-406.0,630.0
645,526.0,-1569.0,334.0,-3041.0,-316.0,563.0
646,510.0,-1535.0,364.0,-2927.0,-218.0,476.0
647,-159.0,-1251.0,917.0,-569.0,307.0,-103.0
648,-140.0,-1155.0,836.0,-255.0,96.0,-95.0
649,-42.0,-1081.0,666.0,-23.0,-120.0,-87.0
650,48.0,-1115.0,561.0,164.0,-288.0,-107.0
651,122.0,-1388.0,416.0,427.0,-399.0,-198.0
652,181.0,-1128.0,501.0,1216.0,-497.0,-364.0
653,363.0,-1000.0,489.0,1597.0,-568.0,-478.0
654,416.0,-890.0,545.0,1747.0,-396.0,-625.0
655,478.0,-609.0,514.0,1672.0,-311.0,-615.0
656,448.0,-696.0,338.0,1095.0,-276.0,-368.0
657,372.0,-1121.0,-172.0,432.0,-262.0,-112.0
658,297.0,-890.0,47.0,900.0,-100.0,-472.0
659,147.0,-977.0,121.0,584.0,224.0,-299.0
660,184.0,-933.0,147.0,584.0,177.0,-312.0
661,259.0,-897.0,167.0,545.0,132.0,-292.0
662,259.0,-866.0,235.0,484.0,138.0,-236.0
663,280.0,-899.0,191.0,340.0,128.0,-165.0
664,287.0,-961.0,135.0,242.0,138.0,-94.0
665,237.0,-979.0,140.0,253.0,157.0,-28.0
666,248.0,-966.0,138.0,273.0,127.0,25.0
667,229.0,-958.0,148.0,290.0,118.0,76.0
668,230.0,-947.0,170.0,293.0,105.0,118.0
669,242.0,-933.0,179.0,282.0,84.0,163.0
670,250.0,-931.0,177.0,80.0,96.0,-104.0
671,203.0,-898.0,212.0,131.0,106.0,-11.0
672,210.0,-946.0,224.0,62.0,102.0,7.0
673,163.0,-996.0,212.0,47.0,126.0,10.0
674,154.0,-1031.0,201.0,61.0,120.0,-18.0
675,178.0,-1030.0,206.0,110.0,90.0,-49.0
676,217.0,-1023.0,212.0,149.0,80.0,-57.0
677,230.0,-1018.0,214.0,174.0,92.0,-43.0
678,235.0,-990.0,235.0,202.0,109.0,-21.0
679,215.0,-982.0,240.0,204.0,140.0,-6.0
680,196.0,-961.0,240.0,214.0,170.0,-6.0
681,134.0,-978.0,242.0,223.0,201.0,-18.0
682,103.0,-1023.0,237.0,244.0,174.0,-44.0
683,238.0,-1015.0,316.0,548.0,185.0,-72.0
684,88.0,-895.0,426.0,743.0,139.0,-391.0
685,130.0,-908.0,429.0,743.0,107.0,-398.0
686,181.0,-896.0,437.0,764.0,79.0,-402.0
687,245.0,-893.0,436.0,775.0,68.0,-401.0
688,274.0,-899.0,443.0,781.0,94.0,-399.0
689,252.0,-921.0,452.0,783.0,144.0,-397.0
690,251.0,-947.0,457.0,802.0,154.0,-381.0
691,253.0,-961.0,459.0,836.0,165.0,-361.0
692,343.0,-919.0,582.0,1661.0,406.0,-138.0
693,371.0,-929.0,646.0,1674.0,387.0,-106.0
694,400.0,-948.0,700.0,1692.0,401.0,-126.0
695,426.0,-977.0,729.0,1700.0,451.0,-161.0
696,440.0,-1064.0,760.0,1694.0,525.0,-168.0
697,493.0,-1107.0,714.0,1754.0,576.0,-145.0
698,564.0,-1086.0,668.0,1869.0,612.0,-137.0
699,567.0,-1082.0,637.0,1921.0,726.0,-164.0
700,573.0,-1059.0,540.0,1993.0,819.0,-195.0
701,443.0,-956.0,483.0,2108.0,988.0,-220.0
702,298.0,-904.0,465.0,2125.0,1031.0,-204.0
703,244.0,-886.0,432.0,2124.0,939.0,-165.0
704,251.0,-777.0,409.0,2189.0,809.0,-149.0
705,131.0,-563.0,438.0,2209.0,785.0,-162.0
706,-41.0,-377.0,424.0,2058.0,736.0,-160.0
707,60.0,-641.0,-361.0,-3252.0,-930.0,851.0
708,146.0,-735.0,-361.0,-3513.0,-903.0,880.0
709,188.0,-838.0,-280.0,-3639.0,-847.0,871.0
710,190.0,-977.0,-221.0,-3736.0,-774.0,829.0
711,116.0,-1090.0,-148.0,-3729.0,-712.0,800.0
712,34.0,-1185.0,-98.0,-3704.0,-742.0,790.0
713,92.0,-1271.0,-70.0,-3675.0,-915.0,773.0
714,217.0,-1334.0,-27.0,-3630.0,-1089.0,734.0
715,303.0,-1383.0,41.0,-3575.0,-1201.0,665.0
716,399.0,-1431.0,97.0,-3531.0,-1300.0,571.0
717,497.0,-1463.0,155.0,-3486.0,-1362.0,476.0
718,688.0,-1551.0,270.0,-3396.0,-1319.0,320.0
719,397.0,-1364.0,1576.0,116.0,-435.0,-180.0
720,353.0,-1363.0,1579.0,716.0,-358.0,-213.0
721,336.0,-1333.0,1692.0,1386.0,-241.0,-283.0
722,262.0,-782.0,1558.0,1886.0,-107.0,-322.0
723,110.0,34.0,1407.0,1666.0,-146.0,-201.0
724,98.0,-531.0,587.0,32.0,-226.0,-130.0
725,262.0,-1554.0,-793.0,-1376.0,-416.0,-194.0
726,817.0,-1959.0,-1958.0,-1143.0,-995.0,246.0
727,124.0,-926.0,285.0,405.0,297.0,-230.0
728,169.0,-882.0,183.0,782.0,216.0,164.0
729,134.0,-926.0,192.0,342.0,139.0,177.0
730,154.0,-952.0,167.0,259.0,144.0,118.0
731,165.0,-966.0,153.0,219.0,151.0,90.0
732,133.0,-961.0,176.0,209.0,156.0,74.0
733,135.0,-968.0,172.0,166.0,138.0,39.0
734,184.0,-991.0,125.0,115.0,113.0,8.0
735,186.0,-992.0,122.0,135.0,111.0,28.0
736,154.0,-940.0,180.0,200.0,105.0,57.0
737,161.0,-968.0,158.0,147.0,85.0,61.0
738,155.0,-970.0,161.0,140.0,84.0,56.0
739,139.0,-957.0,169.0,146.0,86.0,45.0
740,99.0,-977.0,158.0,130.0,100.0,-27.0
741,126.0,-953.0,214.0,187.0,81.0,-143.0
742,147.0,-958.0,217.0,193.0,29.0,-154.0
743,197.0,-963.0,212.0,198.0,-8.0,-154.0
744,206.0,-957.0,214.0,204.0,-9.0,-142.0
745,201.0,-947.0,224.0,202.0,-3.0,-136.0
746,192.0,-953.0,227.0,192.0,12.0,-140.0
747,191.0,-989.0,227.0,185.0,21.0,-145.0
748,234.0,-1014.0,210.0,206.0,16.0,-148.0
749,223.0,-977.0,231.0,253.0,37.0,-146.0
750,205.0,-1020.0,219.0,240.0,66.0,-149.0
751,210.0,-1022.0,239.0,286.0,73.0,-170.0
752,330.0,-792.0,299.0,460.0,319.0,-229.0
753,245.0,-1008.0,346.0,505.0,153.0,-263.0
754,243.0,-1033.0,355.0,533.0,155.0,-269.0
755,237.0,-1062.0,359.0,571.0,153.0,-274.0
756,255.0,-1075.0,363.0,625.0,145.0,-282.0
757,281.0,-1085.0,368.0,679.0,143.0,-296.0
758,320.0,-1096.0,368.0,731.0,148.0,-315.0
759,360.0,-1063.0,349.0,788.0,162.0,-335.0
760,358.0,-1024.0,376.0,838.0,207.0,-358.0
761,362.0,-967.0,382.0,869.0,249.0,-379.0
762,344.0,-915.0,398.0,879.0,293.0,-393.0
763,280.0,-882.0,422.0,857.0,334.0,-400.0
764,42.0,-876.0,483.0,1433.0,838.0,-959.0
765,-50.0,-847.0,542.0,1484.0,825.0,-847.0
766,-90.0,-799.0,559.0,1553.0,729.0,-685.0
767,-112.0,-736.0,595.0,1600.0,609.0,-566.0
768,-80.0,-654.0,612.0,1648.0,436.0,-433.0
769,-73.0,-612.0,611.0,1643.0,334.0,-288.0
770,-71.0,-576.0,667.0,1612.0,196.0,-29.0
771,42.0,-560.0,772.0,1577.0,-71.0,288.0
772,338.0,-674.0,826.0,1459.0,-389.0,616.0
773,556.0,-738.0,771.0,1525.0,-494.0,830.0
774,621.0,-402.0,833.0,1872.0,-461.0,807.0
775,-6.0,53.0,289.0,914.0,968.0,-887.0
776,-496.0,-23.0,308.0,208.0,1303.0,-808.0
777,-716.0,-224.0,281.0,-489.0,942.0,-468.0
778,-436.0,-289.0,258.0,-895.0,122.0,-11.0
779,-194.0,-293.0,250.0,-1192.0,-223.0,296.0
780,-24.0,-233.0,213.0,-1440.0,-297.0,393.0
781,87.0,-145.0,135.0,-1703.0,-301.0,357.0
782,126.0,-166.0,19.0,-2123.0,-182.0,243.0
783,45.0,-284.0,-70.0,-2594.0,69.0,179.0
784,283.0,-1150.0,202.0,-2728.0,-1206.0,1142.0
785,365.0,-1152.0,219.0,-2650.0,-1166.0,1152.0
786,351.0,-1103.0,226.0,-2581.0,-1089.0,1119.0
787,385.0,-1040.0,230.0,-2578.0,-1099.0,1098.0
788,418.0,-1106.0,229.0,-2707.0,-1112.0,1103.0
789,453.0,-1239.0,239.0,-2797.0,-1128.0,1101.0
790,383.0,-1323.0,261.0,-2763.0,-1111.0,1063.0
791,337.0,-1338.0,270.0,-2665.0,-1167.0,1002.0
792,347.0,-1336.0,253.0,-2599.0,-1290.0,944.0
793,359.0,-1304.0,264.0,-2549.0,-1410.0,874.0
794,451.0,-1327.0,265.0,-2560.0,-1548.0,810.0
795,631.0,-1251.0,441.0,-1854.0,-1100.0,409.0
796,544.0,-1194.0,410.0,-1763.0,-896.0,365.0
797,476.0,-1126.0,404.0,-1711.0,-724.0,372.0
798,505.0,-1161.0,415.0,-1709.0,-600.0,413.0
799,608.0,-1150.0,457.0,-1648.0,-476.0,422.0
800,647.0,-1123.0,507.0,-1562.0,-315.0,399.0
801,563.0,-1056.0,494.0,-1469.0,-140.0,351.0
802,477.0,-1036.0,514.0,-1411.0,-42.0,294.0
803,-89.0,-1091.0,243.0,854.0,-676.0,212.0
804,-379.0,-953.0,149.0,910.0,-571.0,389.0
805,-394.0,-1099.0,-113.0,568.0,-616.0,341.0
806,-371.0,-1275.0,-413.0,371.0,-608.0,122.0
807,-348.0,-1511.0,-717.0,391.0,-602.0,-184.0
808,-238.0,-1638.0,-902.0,723.0,-665.0,-547.0
809,34.0,-1461.0,-736.0,1274.0,-720.0,-828.0
810,204.0,-1306.0,-468.0,1536.0,-628.0,-868.0
811,294.0,-1119.0,-240.0,1615.0,-387.0,-786.0
812,206.0,-982.0,-100.0,1555.0,-100.0,-670.0
813,161.0,-959.0,-78.0,1399.0,45.0,-584.0
814,164.0,-1046.0,36.0,497.0,-39.0,-240.0
815,105.0,-994.0,84.0,77.0,81.0,-49.0
816,68.0,-977.0,110.0,111.0,75.0,-19.0
817,56.0,-963.0,125.0,111.0,59.0,-17.0
818,46.0,-980.0,118.0,71.0,57.0,-38.0
819,47.0,-975.0,117.0,59.0,53.0,-72.0
820,42.0,-971.0,112.0,44.0,55.0,-111.0
821,52.0,-969.0,112.0,40.0,51.0,-148.0
822,71.0,-960.0,122.0,46.0,47.0,-180.0
823,93.0,-967.0,118.0,26.0,48.0,-197.0
824,105.0,-958.0,124.0,18.0,55.0,-196.0
825,95.0,-972.0,123.0,-10.0,69.0,-189.0
826,127.0,-998.0,96.0,-26.0,69.0,-197.0
827,115.0,-1001.0,102.0,49.0,15.0,-61.0
828,115.0,-986.0,113.0,60.0,7.0,-74.0
829,122.0,-989.0,108.0,46.0,-1.0,-84.0
830,120.0,-995.0,104.0,42.0,-3.0,-92.0
831,118.0,-991.0,107.0,48.0,-10.0,-100.0
832,123.0,-982.0,111.0,51.0,-20.0,-110.0
833,130.0,-974.0,115.0,47.0,-27.0,-115.0
834,130.0,-978.0,108.0,42.0,-30.0,-114.0
835,142.0,-971.0,110.0,46.0,-36.0,-113.0
836,146.0,-962.0,118.0,47.0,-37.0,-108.0
837,136.0,-958.0,123.0,38.0,-32.0,-104.0
838,178.0,-970.0,111.0,6.0,-80.0,-141.0
839,180.0,-973.0,115.0,-14.0,-3.0,-77.0
840,170.0,-984.0,102.0,-19.0,67.0,-88.0
841,177.0,-973.0,109.0,-10.0,64.0,-88.0
842,179.0,-979.0,105.0,-17.0,57.0,-76.0
843,175.0,-982.0,105.0,-16.0,48.0,-62.0
844,176.0,-988.0,105.0,-17.0,34.0,-48.0
845,181.0,-987.0,107.0,-13.0,20.0,-35.0
846,186.0,-990.0,105.0,-14.0,10.0,-21.0
847,184.0,-993.0,107.0,-11.0,4.0,-2.0
848,167.0,-993.0,112.0,-13.0,-1.0,12.0
849,139.0,-981.0,121.0,-11.0,-11.0,11.0
850,173.0,-965.0,119.0,-7.0,-41.0,-9.0
851,199.0,-962.0,116.0,-16.0,-48.0,-4.0
852,125.0,-983.0,123.0,-40.0,-33.0,26.0
853,138.0,-974.0,139.0,-40.0,-91.0,18.0
854,136.0,-981.0,155.0,-82.0,-125.0,8.0
855,425.0,-767.0,-369.0,812.0,-3630.0,199.0
856,360.0,-835.0,-380.0,674.0,-3527.0,105.0
857,300.0,-787.0,-327.0,680.0,-3420.0,102.0
858,270.0,-843.0,-285.0,570.0,-3326.0,143.0
859,269.0,-851.0,-286.0,513.0,-3238.0,194.0
860,290.0,-758.0,-311.0,493.0,-3137.0,264.0
861,321.0,-703.0,-338.0,399.0,-3042.0,302.0
862,371.0,-694.0,-367.0,275.0,-2953.0,301.0
863,355.0,-703.0,-353.0,177.0,-2837.0,303.0
864,395.0,-713.0,-342.0,96.0,-2765.0,290.0
865,389.0,-727.0,-320.0,28.0,-2675.0,255.0
866,108.0,-821.0,-253.0,-82.0,-2556.0,174.0
867,310.0,-1391.0,-533.0,27.0,312.0,208.0
868,525.0,-1303.0,-438.0,827.0,365.0,281.0
869,231.0,-1095.0,-160.0,1415.0,645.0,467.0
870,-240.0,-616.0,418.0,1679.0,693.0,512.0
871,64.0,-535.0,837.0,1114.0,156.0,289.0
872,-9.0,-853.0,520.0,202.0,235.0,180.0
873,140.0,-1001.0,233.0,-27.0,160.0,73.0
874,67.0,-1106.0,159.0,-57.0,170.0,5.0
875,99.0,-1137.0,131.0,15.0,94.0,-54.0
876,101.0,-1170.0,70.0,70.0,53.0,-104.0
877,124.0,-1097.0,130.0,203.0,14.0,-135.0
878,205.0,-1021.0,184.0,190.0,-32.0,-131.0
879,154.0,-957.0,192.0,-30.0,26.0,-83.0
880,166.0,-961.0,179.0,-35.0,23.0,-85.0
881,179.0,-955.0,185.0,-23.0,20.0,-77.0
882,167.0,-959.0,186.0,-19.0,26.0,-64.0
883,162.0,-965.0,184.0,-18.0,23.0,-55.0
884,168.0,-975.0,179.0,-12.0,16.0,-49.0
885,183.0,-971.0,183.0,-1.0,8.0,-40.0
886,154.0,-969.0,197.0,-27.0,21.0,32.0
887,160.0,-972.0,196.0,-39.0,22.0,18.0
888,164.0,-987.0,189.0,-61.0,27.0,12.0
889,168.0,-986.0,188.0,-63.0,29.0,8.0
890,158.0,-975.0,198.0,-59.0,37.0,3.0
891,161.0,-1006.0,189.0,-78.0,51.0,-17.0
892,176.0,-971.0,190.0,-75.0,56.0,-28.0
893,67.0,-894.0,270.0,-74.0,82.0,-46.0
894,85.0,-899.0,270.0,-177.0,5.0,-104.0
895,143.0,-943.0,223.0,-278.0,-57.0,-134.0
896,153.0,-960.0,200.0,-316.0,-80.0,-111.0
897,105.0,-956.0,253.0,-379.0,-188.0,-72.0
898,361.0,-894.0,-75.0,485.0,-3358.0,-214.0
899,389.0,-873.0,-60.0,536.0,-3290.0,-318.0
900,418.0,-818.0,-48.0,581.0,-3189.0,-400.0
901,463.0,-786.0,-25.0,580.0,-3052.0,-452.0
902,497.0,-797.0,12.0,552.0,-2850.0,-466.0
903,522.0,-837.0,67.0,533.0,-2599.0,-447.0
904,536.0,-854.0,129.0,538.0,-2303.0,-391.0
905,481.0,-908.0,203.0,540.0,-1957.0,-312.0
906,426.0,-935.0,295.0,570.0,-1634.0,-236.0
907,338.0,-973.0,401.0,575.0,-1312.0,-135.0
908,270.0,-990.0,478.0,552.0,-1019.0,-1.0
909,113.0,-966.0,189.0,78.0,117.0,-241.0
910,172.0,-938.0,221.0,92.0,70.0,-287.0
911,103.0,-982.0,174.0,50.0,77.0,-289.0
912,58.0,-951.0,212.0,116.0,36.0,-335.0
913,217.0,-909.0,231.0,150.0,-83.0,-409.0
914,295.0,-929.0,223.0,104.0,-110.0,-394.0
915,372.0,-943.0,193.0,58.0,-123.0,-335.0
916,349.0,-952.0,183.0,33.0,-66.0,-251.0
917,264.0,-964.0,185.0,-19.0,34.0,-89.0
918,274.0,-958.0,167.0,-103.0,48.0,-5.0
919,293.0,-948.0,176.0,-6.0,94.0,103.0
920,297.0,-951.0,161.0,-10.0,98.0,157.0
921,280.0,-954.0,156.0,1.0,109.0,215.0
922,244.0,-939.0,184.0,31.0,115.0,260.0
923,238.0,-946.0,189.0,29.0,102.0,276.0
924,242.0,-957.0,174.0,17.0,91.0,272.0
925,251.0,-948.0,170.0,19.0,91.0,265.0
926,204.0,-930.0,198.0,25.0,107.0,259.0
927,153.0,-937.0,203.0,0.0,109.0,221.0
928,155.0,-952.0,186.0,-29.0,94.0,139.0
929,177.0,-956.0,177.0,-43.0,84.0,62.0
930,194.0,-954.0,180.0,-46.0,79.0,15.0
931,211.0,-957.0,172.0,-54.0,76.0,-13.0
932,213.0,-953.0,174.0,-52.0,77.0,-27.0
933,221.0,-952.0,174.0,-48.0,75.0,-30.0
934,233.0,-951.0,171.0,-40.0,70.0,-20.0
935,228.0,-957.0,174.0,-11.0,86.0,35.0
936,187.0,-956.0,179.0,-8.0,105.0,45.0
937,199.0,-959.0,174.0,-10.0,92.0,35.0
938,210.0,-959.0,173.0,-11.0,81.0,34.0
939,210.0,-961.0,174.0,-14.0,79.0,37.0
940,209.0,-963.0,174.0,-15.0,77.0,38.0
941,208.0,-961.0,173.0,-16.0,81.0,33.0
942,205.0,-955.0,179.0,-15.0,83.0,30.0
943,205.0,-957.0,176.0,-22.0,81.0,29.0
944,208.0,-960.0,174.0,-26.0,78.0,30.0
945,202.0,-964.0,172.0,-28.0,78.0,30.0
946,206.0,-970.0,168.0,-29.0,79.0,25.0
947,209.0,-968.0,166.0,-14.0,94.0,13.0
948,193.0,-945.0,181.0,17.0,55.0,-65.0
949,193.0,-956.0,158.0,3.0,53.0,-72.0
950,181.0,-954.0,169.0,16.0,54.0,-83.0
951,180.0,-950.0,178.0,22.0,48.0,-103.0
952,179.0,-944.0,165.0,20.0,36.0,-125.0
953,182.0,-952.0,162.0,32.0,27.0,-150.0
954,222.0,-951.0,158.0,52.0,18.0,-169.0
955,228.0,-958.0,160.0,66.0,31.0,-167.0
956,216.0,-945.0,183.0,78.0,39.0,-162.0
957,222.0,-934.0,184.0,58.0,41.0,-162.0
958,208.0,-935.0,196.0,41.0,43.0,-160.0
959,193.0,-945.0,185.0,21.0,37.0,-162.0
960,216.0,-956.0,162.0,18.0,22.0,-172.0
961,238.0,-952.0,171.0,37.0,16.0,-171.0
962,248.0,-962.0,164.0,41.0,11.0,-152.0
963,236.0,-968.0,180.0,99.0,56.0,-97.0
964,233.0,-954.0,187.0,106.0,56.0,-108.0
965,238.0,-951.0,190.0,97.0,54.0,-116.0
966,245.0,-942.0,203.0,98.0,48.0,-116.0
967,255.0,-955.0,175.0,82.0,45.0,-113.0
968,247.0,-937.0,187.0,104.0,51.0,-102.0
969,251.0,-925.0,207.0,113.0,49.0,-92.0
970,265.0,-919.0,211.0,98.0,44.0,-77.0
971,267.0,-926.0,209.0,75.0,42.0,-54.0
972,256.0,-971.0,200.0,98.0,94.0,24.0
973,251.0,-963.0,221.0,198.0,88.0,80.0
974,217.0,-977.0,249.0,161.0,122.0,157.0
975,220.0,-999.0,255.0,178.0,122.0,149.0
976,222.0,-1017.0,261.0,200.0,121.0,143.0
977,221.0,-1033.0,264.0,226.0,117.0,141.0
978,204.0,-1034.0,276.0,275.0,123.0,138.0
979,192.0,-1054.0,275.0,329.0,130.0,128.0
980,203.0,-1045.0,273.0,401.0,122.0,116.0
981,251.0,-1029.0,276.0,461.0,95.0,109.0
982,256.0,-1034.0,280.0,504.0,144.0,107.0
983,252.0,-1076.0,283.0,524.0,186.0,108.0
984,222.0,-1120.0,287.0,560.0,219.0,112.0
985,227.0,-1087.0,287.0,634.0,224.0,107.0
986,245.0,-1083.0,305.0,670.0,224.0,101.0
987,226.0,-1076.0,310.0,704.0,247.0,88.0
988,186.0,-1101.0,318.0,727.0,260.0,54.0
989,164.0,-1114.0,340.0,797.0,207.0,-57.0
990,179.0,-1046.0,374.0,1885.0,729.0,-502.0
991,-132.0,-1041.0,505.0,2002.0,262.0,-388.0
992,-148.0,-991.0,535.0,2048.0,37.0,-253.0
993,-44.0,-876.0,537.0,2059.0,-257.0,-124.0
994,158.0,-715.0,519.0,1971.0,-468.0,28.0
995,259.0,-705.0,482.0,1685.0,-403.0,258.0
996,215.0,-848.0,419.0,1388.0,-227.0,462.0
997,169.0,-919.0,316.0,1291.0,-137.0,579.0
998,141.0,-868.0,137.0,1319.0,-134.0,614.0
999,-33.0,-671.0,-2.0,1340.0,-103.0,609.0
1000,18.0,-573.0,-25.0,1162.0,-398.0,625.0
1001,228.0,-633.0,70.0,-2077.0,-708.0,842.0
1002,358.0,-1459.0,317.0,-2218.0,-1029.0,449.0
1003,375.0,-1215.0,1052.0,-769.0,-156.0,-254.0
1004,347.0,-1084.0,1045.0,-473.0,-182.0,-296.0
1005,266.0,-960.0,1065.0,-286.0,-158.0,-273.0
1006,210.0,-1023.0,1074.0,-241.0,-152.0,-170.0
1007,354.0,-1100.0,987.0,-96.0,-243.0,-59.0
1008,394.0,-1005.0,821.0,209.0,-186.0,-55.0
1009,249.0,-709.0,709.0,493.0,-97.0,-227.0
1010,161.0,-694.0,603.0,437.0,-201.0,-399.0
1011,157.0,-755.0,500.0,352.0,-398.0,-419.0
1012,349.0,-651.0,463.0,404.0,-646.0,-289.0
1013,585.0,-617.0,406.0,341.0,-693.0,-168.0
1014,498.0,-636.0,378.0,206.0,-184.0,-271.0
1015,316.0,-870.0,176.0,131.0,138.0,-378.0
1016,311.0,-915.0,157.0,68.0,133.0,-296.0
1017,281.0,-952.0,134.0,55.0,138.0,-235.0
1018,254.0,-951.0,143.0,97.0,136.0,-210.0
1019,262.0,-918.0,166.0,138.0,110.0,-203.0
1020,268.0,-948.0,141.0,96.0,94.0,-193.0
1021,274.0,-948.0,137.0,107.0,85.0,-192.0
1022,267.0,-943.0,146.0,121.0,93.0,-193.0
1023,271.0,-959.0,149.0,112.0,90.0,-196.0
1024,302.0,-986.0,129.0,101.0,73.0,-196.0
1025,318.0,-979.0,130.0,138.0,62.0,-176.0
1026,256.0,-943.0,193.0,161.0,111.0,-7.0
1027,311.0,-940.0,207.0,59.0,136.0,-191.0
1028,308.0,-944.0,207.0,53.0,148.0,-205.0
1029,294.0,-936.0,215.0,57.0,160.0,-212.0
1030,290.0,-939.0,211.0,53.0,167.0,-211.0
1031,273.0,-954.0,212.0,51.0,167.0,-222.0
1032,299.0,-951.0,207.0,70.0,148.0,-223.0
1033,359.0,-906.0,203.0,113.0,130.0,-194.0
1034,365.0,-914.0,195.0,123.0,160.0,-160.0
1035,383.0,-920.0,235.0,273.0,373.0,-99.0
1036,365.0,-973.0,256.0,396.0,109.0,-341.0
1037,429.0,-1066.0,313.0,646.0,209.0,-433.0
1038,439.0,-1091.0,319.0,671.0,235.0,-395.0
1039,502.0,-1101.0,309.0,718.0,266.0,-368.0
1040,544.0,-1108.0,297.0,765.0,331.0,-375.0
1041,521.0,-1085.0,281.0,816.0,422.0,-392.0
1042,474.0,-1080.0,312.0,853.0,503.0,-409.0
1043,432.0,-1028.0,314.0,908.0,550.0,-428.0
1044,317.0,-1026.0,298.0,918.0,626.0,-459.0
1045,199.0,-1024.0,333.0,960.0,647.0,-474.0
1046,191.0,-988.0,355.0,1025.0,572.0,-465.0
1047,186.0,-932.0,356.0,1073.0,521.0,-476.0
1048,277.0,-993.0,470.0,1400.0,483.0,-625.0
1049,253.0,-960.0,551.0,1601.0,423.0,-552.0
1050,266.0,-947.0,601.0,1688.0,378.0,-457.0
1051,370.0,-894.0,640.0,1798.0,269.0,-346.0
1052,503.0,-818.0,670.0,1895.0,225.0,-265.0
1053,512.0,-686.0,658.0,1951.0,304.0,-209.0
1054,662.0,-599.0,675.0,1893.0,215.0,-173.0
1055,731.0,-605.0,692.0,1740.0,271.0,-165.0
1056,705.0,-614.0,679.0,1624.0,384.0,-205.0
1057,674.0,-570.0,665.0,1571.0,433.0,-234.0
1058,455.0,117.0,-2.0,-850.0,563.0,245.0
1059,-206.0,-1092.0,-87.0,-3132.0,-299.0,759.0
1060,-120.0,-1086.0,-20.0,-2794.0,-524.0,716.0
1061,-98.0,-960.0,46.0,-2516.0,-658.0,668.0
1062,-113.0,-991.0,62.0,-2514.0,-767.0,645.0
1063,-76.0,-1061.0,82.0,-2539.0,-919.0,656.0
1064,33.0,-1048.0,112.0,-2525.0,-1082.0,714.0
1065,191.0,-1040.0,119.0,-2591.0,-1177.0,794.0
1066,343.0,-1132.0,143.0,-2729.0,-1152.0,861.0
1067,399.0,-1239.0,189.0,-2807.0,-1014.0,900.0
1068,399.0,-1280.0,255.0,-2786.0,-854.0,923.0
1069,393.0,-1282.0,300.0,-2755.0,-735.0,944.0
1070,540.0,-1247.0,458.0,-1959.0,412.0,282.0
1071,515.0,-1137.0,448.0,-1909.0,610.0,262.0
1072,554.0,-1117.0,412.0,-1959.0,784.0,226.0
1073,619.0,-1173.0,370.0,-1999.0,1002.0,149.0
1074,490.0,-1174.0,340.0,-1932.0,1357.0,71.0
1075,318.0,-1130.0,284.0,-1838.0,1651.0,32.0
1076,-73.0,-1120.0,310.0,-1610.0,2203.0,-93.0
1077,-255.0,-1082.0,359.0,-1471.0,2147.0,-102.0
1078,-410.0,-1154.0,395.0,-1385.0,1954.0,-89.0
1079,-604.0,-1265.0,483.0,-1200.0,1668.0,-25.0
1080,-608.0,-1255.0,481.0,-883.0,1179.0,47.0
1081,-509.0,-1123.0,475.0,-535.0,648.0,72.0
1082,-468.0,-1123.0,454.0,-334.0,185.0,37.0
1083,-452.0,-1091.0,464.0,-99.0,-264.0,-14.0
1084,-419.0,-1076.0,517.0,103.0,-687.0,-25.0
1085,-196.0,-1149.0,520.0,248.0,-1096.0,1.0
1086,118.0,-1330.0,586.0,500.0,-1338.0,-6.0
1087,144.0,-971.0,-140.0,921.0,-295.0,-247.0
1088,130.0,-979.0,-115.0,976.0,-325.0,-257.0
1089,189.0,-875.0,28.0,1099.0,-363.0,-286.0
1090,213.0,-898.0,49.0,982.0,-279.0,-320.0
1091,281.0,-847.0,93.0,927.0,-142.0,-348.0
1092,363.0,-887.0,33.0,777.0,61.0,-350.0
1093,332.0,-966.0,-49.0,637.0,323.0,-321.0
1094,262.0,-1009.0,-51.0,621.0,517.0,-282.0
1095,109.0,-978.0,58.0,679.0,620.0,-278.0
1096,63.0,-961.0,101.0,668.0,543.0,-341.0
1097,111.0,-1010.0,22.0,588.0,397.0,-417.0
1098,288.0,-908.0,200.0,392.0,136.0,-138.0
1099,263.0,-903.0,208.0,350.0,144.0,-81.0
1100,272.0,-932.0,171.0,293.0,133.0,-31.0
1101,217.0,-939.0,190.0,275.0,155.0,-14.0
1102,194.0,-920.0,217.0,254.0,145.0,-31.0
1103,198.0,-948.0,197.0,184.0,140.0,-77.0
1104,206.0,-934.0,212.0,158.0,136.0,-133.0
1105,230.0,-937.0,200.0,111.0,132.0,-174.0
1106,242.0,-951.0,184.0,74.0,135.0,-190.0
1107,231.0,-950.0,191.0,71.0,100.0,228.0
1108,198.0,-960.0,213.0,134.0,75.0,27.0
1109,221.0,-956.0,212.0,128.0,78.0,7.0
1110,214.0,-953.0,221.0,128.0,95.0,-3.0
1111,199.0,-962.0,217.0,115.0,110.0,-19.0
1112,211.0,-967.0,215.0,113.0,112.0,-39.0
1113,209.0,-978.0,215.0,112.0,119.0,-50.0
1114,216.0,-981.0,213.0,119.0,122.0,-59.0
1115,213.0,-971.0,207.0,127.0,135.0,-68.0
1116,209.0,-968.0,214.0,140.0,140.0,-73.0
1117,233.0,-958.0,218.0,152.0,133.0,-71.0
1118,213.0,-938.0,233.0,161.0,145.0,-58.0
1119,239.0,-1007.0,260.0,212.0,130.0,-159.0
1120,225.0,-1061.0,348.0,833.0,295.0,-403.0
1121,227.0,-1057.0,367.0,877.0,253.0,-401.0
1122,265.0,-1024.0,364.0,922.0,227.0,-403.0
1123,308.0,-991.0,368.0,954.0,217.0,-408.0
1124,325.0,-979.0,370.0,966.0,232.0,-426.0
1125,328.0,-976.0,367.0,975.0,252.0,-456.0
1126,310.0,-1007.0,377.0,979.0,282.0,-484.0
1127,312.0,-1009.0,383.0,1013.0,295.0,-506.0
1128,330.0,-989.0,378.0,1059.0,300.0,-523.0
1129,335.0,-950.0,393.0,1101.0,322.0,-561.0
1130,322.0,-938.0,404.0,1111.0,358.0,-614.0
1131,179.0,-1132.0,499.0,2079.0,609.0,-538.0
1132,325.0,-971.0,505.0,2270.0,406.0,-448.0
1133,363.0,-926.0,597.0,2271.0,395.0,-359.0
1134,362.0,-986.0,675.0,2205.0,396.0,-216.0
1135,472.0,-1001.0,707.0,2246.0,228.0,-80.0
1136,600.0,-967.0,738.0,2314.0,85.0,-15.0
1137,686.0,-945.0,712.0,2334.0,41.0,-10.0
1138,727.0,-1015.0,629.0,2301.0,96.0,-9.0
1139,723.0,-1001.0,560.0,2377.0,191.0,0.0
1140,588.0,-926.0,483.0,2456.0,368.0,5.0
1141,332.0,-784.0,422.0,2469.0,536.0,-24.0
1142,-260.0,-486.0,-453.0,-2504.0,526.0,1211.0
1143,-280.0,-534.0,-432.0,-2736.0,409.0,1139.0
1144,-293.0,-660.0,-425.0,-2952.0,220.0,1035.0
1145,-249.0,-667.0,-393.0,-2983.0,-67.0,957.0
1146,-155.0,-640.0,-358.0,-3058.0,-359.0,912.0
1147,-60.0,-675.0,-329.0,-3232.0,-570.0,864.0
1148,-13.0,-775.0,-294.0,-3416.0,-705.0,807.0
1149,46.0,-876.0,-262.0,-3565.0,-844.0,760.0
1150,70.0,-987.0,-192.0,-3651.0,-935.0,739.0
1151,105.0,-1110.0,-136.0,-3732.0,-1001.0,739.0
1152,174.0,-1223.0,-75.0,-3780.0,-1064.0,740.0
1153,116.0,-1085.0,681.0,-2780.0,170.0,-42.0
1154,153.0,-1410.0,692.0,-3262.0,-147.0,108.0
1155,163.0,-1784.0,761.0,-3360.0,-311.0,267.0
1156,258.0,-1740.0,919.0,-2945.0,-440.0,266.0
1157,433.0,-1577.0,1033.0,-2555.0,-525.0,152.0
1158,481.0,-1485.0,1150.0,-2282.0,-483.0,8.0
1159,476.0,-1413.0,1270.0,-2006.0,-417.0,-100.0
1160,549.0,-1379.0,1362.0,-1709.0,-368.0,-159.0
1161,519.0,-1324.0,1436.0,-1376.0,-203.0,-233.0
1162,391.0,-1231.0,1450.0,-1041.0,-12.0,-292.0
1163,301.0,-1161.0,1395.0,-771.0,97.0,-268.0
1164,332.0,-592.0,378.0,1721.0,-152.0,-233.0
1165,226.0,-988.0,-48.0,1095.0,70.0,-163.0
1166,81.0,-953.0,60.0,1266.0,59.0,-210.0
1167,76.0,-811.0,210.0,1347.0,14.0,-294.0
1168,300.0,-903.0,79.0,1083.0,44.0,-420.0
1169,279.0,-934.0,57.0,969.0,270.0,-487.0
1170,161.0,-958.0,102.0,890.0,396.0,-506.0
1171,216.0,-917.0,125.0,850.0,309.0,-537.0
1172,276.0,-917.0,107.0,787.0,252.0,-534.0
1173,295.0,-922.0,108.0,743.0,223.0,-485.0
1174,286.0,-918.0,146.0,711.0,186.0,-417.0
1175,240.0,-917.0,206.0,298.0,147.0,52.0
1176,283.0,-960.0,223.0,177.0,141.0,-172.0
1177,331.0,-942.0,218.0,185.0,130.0,-170.0
1178,281.0,-941.0,223.0,165.0,176.0,-135.0
1179,266.0,-917.0,232.0,176.0,168.0,-129.0
1180,237.0,-899.0,247.0,177.0,171.0,-125.0
1181,250.0,-893.0,254.0,166.0,145.0,-128.0
1182,267.0,-908.0,249.0,145.0,135.0,-123.0
1183,265.0,-922.0,252.0,140.0,134.0,-107.0
1184,286.0,-929.0,242.0,144.0,118.0,-88.0
1185,310.0,-914.0,246.0,164.0,107.0,-60.0
1186,310.0,-926.0,249.0,152.0,105.0,-25.0
1187,297.0,-926.0,286.0,324.0,164.0,-170.0
1188,260.0,-953.0,325.0,451.0,117.0,-88.0
1189,296.0,-960.0,328.0,472.0,108.0,-91.0
1190,336.0,-971.0,331.0,490.0,111.0,-94.0
1191,340.0,-983.0,331.0,513.0,132.0,-110.0
1192,319.0,-1007.0,339.0,533.0,158.0,-127.0
1193,301.0,-995.0,340.0,572.0,170.0,-138.0
1194,277.0,-976.0,353.0,609.0,179.0,-151.0
1195,255.0,-1002.0,366.0,627.0,180.0,-162.0
1196,283.0,-974.0,354.0,671.0,150.0,-171.0
1197,291.0,-938.0,363.0,706.0,143.0,-180.0
1198,275.0,-958.0,373.0,715.0,144.0,-195.0
1199,336.0,-904.0,381.0,770.0,126.0,-214.0
1200,307.0,-760.0,511.0,1461.0,253.0,-322.0
1201,350.0,-723.0,547.0,1518.0,207.0,-297.0
1202,418.0,-716.0,584.0,1547.0,195.0,-278.0
1203,424.0,-702.0,647.0,1571.0,254.0,-276.0
1204,449.0,-694.0,706.0,1583.0,263.0,-244.0
1205,433.0,-751.0,776.0,1560.0,299.0,-215.0
1206,502.0,-742.0,793.0,1614.0,245.0,-208.0
1207,529.0,-740.0,780.0,1660.0,274.0,-214.0
1208,566.0,-723.0,750.0,1699.0,299.0,-206.0
1209,602.0,-659.0,717.0,1757.0,304.0,-187.0
1210,642.0,-654.0,711.0,1716.0,316.0,-196.0
1211,-92.0,-238.0,412.0,1086.0,919.0,-401.0
1212,-358.0,68.0,337.0,824.0,770.0,-92.0
1213,-310.0,244.0,194.0,180.0,197.0,225.0
1214,1.0,28.0,70.0,-824.0,-314.0,454.0
1215,176.0,-313.0,-6.0,-1593.0,-275.0,591.0
1216,197.0,-404.0,-60.0,-1811.0,-43.0,702.0
1217,204.0,-306.0,-124.0,-1850.0,96.0,815.0
1218,163.0,-220.0,-177.0,-2077.0,311.0,853.0
1219,48.0,-292.0,-226.0,-2536.0,559.0,873.0
1220,-57.0,-483.0,-268.0,-2991.0,680.0,964.0
1221,-121.0,-666.0,-318.0,-3214.0,666.0,1147.0
1222,537.0,-1341.0,132.0,-3718.0,-774.0,574.0
1223,549.0,-1615.0,439.0,-3108.0,-436.0,35.0
1224,-15.0,-1522.0,990.0,-1907.0,-992.0,-280.0
1225,44.0,-1540.0,1154.0,-1593.0,-1247.0,-289.0
1226,257.0,-1421.0,1274.0,-1235.0,-1429.0,-245.0
1227,404.0,-1308.0,1389.0,-940.0,-1378.0,-211.0
1228,467.0,-1308.0,1415.0,-724.0,-1161.0,-202.0
1229,335.0,-1388.0,1488.0,-443.0,-805.0,-165.0
1230,330.0,-1315.0,1442.0,-5.0,-568.0,-113.0
1231,353.0,-1214.0,1482.0,473.0,-372.0,-132.0
1232,357.0,-1276.0,1250.0,805.0,-208.0,-234.0
1233,295.0,-1200.0,1166.0,1451.0,-46.0,-488.0
1234,304.0,-798.0,897.0,1906.0,68.0,-946.0
1235,360.0,-200.0,715.0,1805.0,-91.0,-1191.0
1236,731.0,-1037.0,13.0,510.0,-596.0,-1065.0
1237,1206.0,-1831.0,-1758.0,518.0,-1644.0,-154.0
1238,1100.0,-1680.0,-1586.0,2554.0,-482.0,-100.0
1239,290.0,-921.0,86.0,762.0,327.0,-408.0
1240,267.0,-919.0,101.0,722.0,268.0,-336.0
1241,218.0,-934.0,113.0,668.0,228.0,-301.0
1242,259.0,-945.0,99.0,622.0,162.0,-301.0
1243,313.0,-977.0,53.0,581.0,174.0,-281.0
1244,329.0,-930.0,96.0,617.0,194.0,-252.0
1245,319.0,-932.0,99.0,597.0,228.0,-210.0
1246,296.0,-961.0,104.0,574.0,260.0,-186.0
1247,279.0,-948.0,124.0,586.0,261.0,-163.0
1248,312.0,-926.0,140.0,587.0,214.0,-125.0
1249,283.0,-883.0,207.0,568.0,199.0,-68.0
1250,320.0,-879.0,193.0,479.0,157.0,-22.0
1251,284.0,-885.0,199.0,398.0,167.0,11.0
1252,232.0,-956.0,184.0,143.0,137.0,135.0
1253,243.0,-957.0,200.0,128.0,165.0,-105.0
1254,302.0,-927.0,223.0,163.0,105.0,-162.0
1255,297.0,-922.0,230.0,157.0,112.0,-143.0
1256,290.0,-920.0,227.0,150.0,112.0,-126.0
1257,237.0,-937.0,231.0,145.0,128.0,-120.0
1258,245.0,-963.0,227.0,155.0,98.0,-135.0
1259,279.0,-957.0,223.0,185.0,56.0,-144.0
1260,312.0,-943.0,240.0,211.0,28.0,-136.0
1261,309.0,-942.0,234.0,211.0,49.0,-121.0
1262,314.0,-936.0,237.0,226.0,61.0,-111.0
1263,292.0,-936.0,243.0,239.0,92.0,-98.0
1264,310.0,-922.0,238.0,262.0,85.0,-86.0
1265,306.0,-915.0,245.0,277.0,96.0,-70.0
1266,319.0,-894.0,247.0,289.0,101.0,-55.0
1267,346.0,-884.0,250.0,289.0,102.0,-46.0
1268,235.0,-889.0,267.0,259.0,164.0,-46.0
1269,307.0,-954.0,338.0,504.0,181.0,-226.0
1270,318.0,-951.0,343.0,524.0,179.0,-234.0
1271,321.0,-959.0,346.0,545.0,190.0,-242.0
1272,290.0,-1002.0,344.0,559.0,206.0,-255.0
1273,299.0,-1036.0,354.0,596.0,189.0,-259.0
1274,323.0,-1075.0,353.0,642.0,175.0,-259.0
1275,375.0,-1091.0,374.0,697.0,164.0,-256.0
1276,451.0,-1050.0,368.0,760.0,163.0,-253.0
1277,456.0,-1018.0,368.0,791.0,225.0,-263.0
1278,393.0,-1009.0,371.0,805.0,302.0,-289.0
1279,297.0,-1033.0,379.0,813.0,352.0,-338.0
1280,208.0,-1087.0,394.0,874.0,310.0,-414.0
1281,580.0,-1061.0,468.0,2252.0,628.0,-500.0
1282,498.0,-1097.0,592.0,2257.0,845.0,-441.0
1283,503.0,-1131.0,653.0,2322.0,774.0,-361.0
1284,564.0,-1079.0,640.0,2437.0,607.0,-279.0
1285,582.0,-1032.0,591.0,2493.0,524.0,-209.0
1286,547.0,-1082.0,522.0,2465.0,529.0,-190.0
1287,539.0,-1083.0,437.0,2514.0,504.0,-174.0
1288,505.0,-1032.0,409.0,2605.0,509.0,-124.0
1289,405.0,-992.0,374.0,2648.0,589.0,-59.0
1290,249.0,-933.0,308.0,2690.0,661.0,-20.0
1291,68.0,-780.0,277.0,2756.0,610.0,-45.0
1292,-168.0,-514.0,264.0,2740.0,477.0,-20.0
1293,-133.0,-51.0,103.0,2581.0,49.0,175.0
1294,249.0,353.0,-82.0,1971.0,-479.0,400.0
1295,456.0,341.0,-140.0,729.0,-342.0,473.0
1296,3.0,-907.0,-54.0,-3255.0,-772.0,1591.0
1297,476.0,-1545.0,1003.0,-2414.0,-499.0,40.0
1298,521.0,-1547.0,1068.0,-2220.0,-475.0,8.0
1299,599.0,-1486.0,1142.0,-1934.0,-456.0,-132.0
1300,648.0,-1351.0,1253.0,-1601.0,-421.0,-293.0
1301,565.0,-1081.0,1467.0,-1308.0,-327.0,-378.0
1302,735.0,-1040.0,1620.0,-1331.0,-363.0,-278.0
1303,751.0,-1249.0,1677.0,-1368.0,-189.0,-174.0
1304,608.0,-1224.0,1767.0,-1001.0,45.0,-249.0
1305,329.0,-1291.0,1809.0,-611.0,182.0,-378.0
1306,90.0,-1424.0,1760.0,-109.0,96.0,-436.0
1307,63.0,-1338.0,1696.0,677.0,-259.0,-445.0
1308,57.0,-1185.0,1491.0,1395.0,-621.0,-360.0
1309,81.0,-211.0,1324.0,1916.0,-938.0,-243.0
1310,98.0,-136.0,1123.0,787.0,-1115.0,-78.0
1311,186.0,-961.0,255.0,-789.0,-1110.0,57.0
1312,218.0,-997.0,49.0,124.0,72.0,-253.0
1313,212.0,-912.0,132.0,249.0,59.0,-274.0
1314,305.0,-908.0,85.0,181.0,31.0,-284.0
1315,288.0,-959.0,31.0,130.0,85.0,-214.0
1316,193.0,-907.0,112.0,242.0,139.0,-158.0
1317,142.0,-890.0,162.0,223.0,130.0,-181.0
1318,160.0,-919.0,133.0,121.0,90.0,-245.0
1319,207.0,-944.0,100.0,56.0,69.0,-310.0
1320,246.0,-955.0,90.0,38.0,75.0,-343.0
1321,288.0,-986.0,73.0,18.0,85.0,-348.0
1322,307.0,-981.0,63.0,38.0,104.0,-325.0
1323,240.0,-982.0,72.0,80.0,152.0,-273.0
1324,257.0,-958.0,117.0,139.0,102.0,-61.0
1325,272.0,-958.0,119.0,120.0,91.0,-105.0
1326,289.0,-965.0,120.0,110.0,79.0,-135.0
1327,313.0,-968.0,108.0,104.0,69.0,-152.0
1328,309.0,-955.0,116.0,122.0,69.0,-154.0
1329,303.0,-935.0,122.0,137.0,71.0,-149.0
1330,311.0,-932.0,119.0,139.0,68.0,-143.0
1331,321.0,-939.0,109.0,138.0,70.0,-133.0
1332,319.0,-940.0,114.0,155.0,84.0,-121.0
1333,334.0,-923.0,129.0,174.0,89.0,-106.0
1334,325.0,-916.0,135.0,174.0,104.0,-83.0
1335,329.0,-917.0,143.0,175.0,128.0,-33.0
1336,359.0,-937.0,173.0,419.0,230.0,-259.0
1337,360.0,-936.0,189.0,416.0,240.0,-263.0
1338,331.0,-958.0,183.0,400.0,259.0,-277.0
1339,320.0,-964.0,187.0,414.0,259.0,-305.0
1340,327.0,-978.0,183.0,428.0,250.0,-323.0
1341,302.0,-900.0,196.0,490.0,232.0,-388.0
1342,180.0,-922.0,251.0,478.0,245.0,-366.0
1343,206.0,-948.0,238.0,463.0,150.0,-335.0
1344,279.0,-939.0,231.0,483.0,60.0,-318.0
1345,401.0,-937.0,221.0,496.0,7.0,-282.0
1346,500.0,-918.0,210.0,506.0,13.0,-276.0
1347,557.0,-921.0,209.0,498.0,82.0,-270.0
1348,562.0,-929.0,216.0,490.0,182.0,-293.0
1349,579.0,-945.0,225.0,480.0,265.0,-307.0
1350,295.0,-1179.0,243.0,1636.0,700.0,-405.0
1351,315.0,-991.0,600.0,2184.0,717.0,-532.0
1352,471.0,-624.0,352.0,2282.0,944.0,-563.0
1353,409.0,-655.0,323.0,2153.0,892.0,-517.0
1354,396.0,-595.0,296.0,2166.0,836.0,-547.0
1355,391.0,-455.0,226.0,2197.0,897.0,-632.0
1356,271.0,-296.0,172.0,2102.0,1059.0,-714.0
1357,16.0,-96.0,138.0,1851.0,1191.0,-767.0
1358,-362.0,182.0,189.0,1472.0,1218.0,-699.0
1359,-304.0,475.0,100.0,841.0,732.0,-476.0
1360,63.0,523.0,-53.0,-161.0,269.0,-317.0
1361,7.0,333.0,-146.0,-1289.0,512.0,-244.0
1362,-227.0,106.0,-137.0,-2197.0,727.0,-72.0
1363,-20.0,-1169.0,61.0,-3198.0,-808.0,1250.0
1364,101.0,-1214.0,115.0,-3113.0,-1001.0,1214.0
1365,256.0,-1192.0,135.0,-3042.0,-1155.0,1171.0
1366,364.0,-1161.0,161.0,-3081.0,-1225.0,1142.0
1367,515.0,-1300.0,153.0,-3208.0,-1241.0,1115.0
1368,688.0,-1379.0,191.0,-3205.0,-1217.0,1079.0
1369,794.0,-1409.0,246.0,-3153.0,-1096.0,1024.0
1370,808.0,-1404.0,290.0,-3105.0,-920.0,932.0
1371,796.0,-1415.0,308.0,-3083.0,-770.0,827.0
1372,786.0,-1430.0,310.0,-3059.0,-648.0,737.0
1373,739.0,-1406.0,313.0,-3009.0,-519.0,655.0
1374,-182.0,-1102.0,388.0,-319.0,-117.0,-131.0
1375,-425.0,-1318.0,-343.0,-204.0,-431.0,564.0
1376,363.0,-1764.0,-1740.0,289.0,-1780.0,846.0
1377,626.0,-1811.0,-1530.0,2071.0,-225.0,16.0
1378,-34.0,-1712.0,-1134.0,2280.0,1515.0,-482.0
1379,148.0,-1162.0,-181.0,3298.0,576.0,-183.0
1380,123.0,-548.0,567.0,3285.0,109.0,-99.0
1381,155.0,-558.0,485.0,2159.0,211.0,-134.0
1382,129.0,-923.0,84.0,1343.0,237.0,-40.0
1383,62.0,-933.0,-32.0,1336.0,218.0,10.0
1384,80.0,-1015.0,-110.0,1334.0,119.0,-17.0
1385,68.0,-970.0,139.0,353.0,19.0,-64.0
1386,115.0,-976.0,124.0,319.0,20.0,-95.0
1387,109.0,-969.0,130.0,304.0,54.0,-103.0
1388,66.0,-944.0,168.0,303.0,83.0,-107.0
1389,55.0,-953.0,161.0,259.0,95.0,-137.0
1390,87.0,-968.0,146.0,222.0,94.0,-169.0
1391,98.0,-952.0,158.0,216.0,100.0,-176.0
1392,95.0,-943.0,175.0,191.0,100.0,-169.0
1393,87.0,-948.0,165.0,155.0,99.0,-168.0
1394,91.0,-987.0,153.0,130.0,106.0,-181.0
1395,59.0,-1052.0,118.0,123.0,138.0,-221.0
1396,70.0,-957.0,165.0,-51.0,107.0,-4.0
1397,113.0,-1093.0,45.0,-165.0,104.0,-97.0
1398,105.0,-1038.0,94.0,-31.0,99.0,-96.0
1399,112.0,-1004.0,120.0,32.0,92.0,-102.0
1400,104.0,-990.0,134.0,56.0,94.0,-103.0
1401,90.0,-985.0,142.0,71.0,94.0,-111.0
1402,104.0,-971.0,148.0,76.0,87.0,-128.0
1403,113.0,-973.0,150.0,76.0,85.0,-135.0
1404,129.0,-975.0,148.0,71.0,82.0,-131.0
1405,142.0,-992.0,150.0,65.0,80.0,-114.0
1406,140.0,-1052.0,90.0,46.0,92.0,-95.0
1407,127.0,-1007.0,127.0,118.0,94.0,-84.0
1408,103.0,-1022.0,163.0,150.0,228.0,-157.0
1409,250.0,-1141.0,222.0,421.0,288.0,75.0
1410,245.0,-1254.0,241.0,527.0,331.0,62.0
1411,288.0,-1385.0,221.0,700.0,319.0,-13.0
1412,313.0,-1402.0,194.0,882.0,372.0,-120.0
1413,436.0,-1383.0,229.0,1026.0,378.0,-237.0
1414,488.0,-1378.0,247.0,1130.0,455.0,-373.0
1415,509.0,-1378.0,241.0,1178.0,550.0,-515.0
1416,453.0,-1495.0,245.0,1229.0,691.0,-566.0
1417,308.0,-1471.0,247.0,1403.0,854.0,-552.0
1418,342.0,-1437.0,249.0,1538.0,904.0,-635.0
1419,76.0,-725.0,444.0,1769.0,625.0,-745.0
1420,11.0,-637.0,385.0,1509.0,753.0,-665.0
1421,-56.0,-554.0,349.0,1404.0,727.0,-643.0
1422,-37.0,-465.0,315.0,1249.0,596.0,-659.0
1423,1.0,-413.0,274.0,1012.0,520.0,-638.0
1424,180.0,-349.0,115.0,739.0,480.0,-530.0
1425,59.0,-286.0,32.0,421.0,765.0,-380.0
1426,-158.0,-433.0,91.0,-2.0,1009.0,-209.0
1427,-261.0,-635.0,97.0,-251.0,987.0,-102.0
1428,-68.0,-543.0,284.0,-638.0,35.0,279.0
1429,20.0,-517.0,303.0,-662.0,-9.0,315.0
1430,67.0,-452.0,329.0,-701.0,-18.0,338.0
1431,97.0,-415.0,354.0,-813.0,-39.0,346.0
1432,114.0,-437.0,364.0,-986.0,-62.0,344.0
1433,144.0,-520.0,376.0,-1153.0,-98.0,362.0
1434,190.0,-611.0,362.0,-1255.0,-136.0,397.0
1435,205.0,-619.0,350.0,-1253.0,-155.0,400.0
1436,199.0,-619.0,327.0,-1268.0,-173.0,365.0
1437,185.0,-664.0,328.0,-1317.0,-214.0,330.0
1438,204.0,-738.0,347.0,-1366.0,-292.0,325.0
1439,-204.0,-1147.0,188.0,-1814.0,-131.0,-183.0
1440,48.0,-1169.0,110.0,-1804.0,-540.0,295.0
1441,58.0,-1217.0,133.0,-1828.0,-530.0,297.0
1442,76.0,-1226.0,159.0,-1803.0,-523.0,299.0
1443,121.0,-1221.0,176.0,-1771.0,-524.0,286.0
1444,185.0,-1209.0,191.0,-1746.0,-511.0,272.0
1445,236.0,-1181.0,198.0,-1721.0,-458.0,257.0
1446,230.0,-1174.0,200.0,-1716.0,-358.0,238.0
1447,185.0,-1168.0,204.0,-1697.0,-267.0,217.0
1448,161.0,-1174.0,195.0,-1679.0,-219.0,201.0
1449,170.0,-1173.0,191.0,-1645.0,-193.0,198.0
1450,189.0,-1154.0,221.0,-1591.0,-172.0,185.0
1451,248.0,-1023.0,530.0,102.0,-122.0,-127.0
1452,131.0,-1025.0,-59.0,1184.0,-391.0,-357.0
1453,126.0,-940.0,16.0,1307.0,-254.0,-457.0
1454,185.0,-997.0,-23.0,1171.0,-98.0,-569.0
1455,219.0,-963.0,22.0,1190.0,103.0,-670.0
1456,246.0,-967.0,3.0,1129.0,310.0,-756.0
1457,248.0,-1015.0,-33.0,1092.0,507.0,-811.0
1458,224.0,-979.0,28.0,1203.0,642.0,-843.0
1459,224.0,-915.0,100.0,1232.0,673.0,-839.0
1460,214.0,-918.0,110.0,1106.0,650.0,-781.0
1461,122.0,-943.0,218.0,243.0,109.0,172.0
1462,118.0,-968.0,200.0,196.0,95.0,83.0
1463,109.0,-952.0,221.0,184.0,97.0,-10.0
1464,139.0,-952.0,213.0,140.0,78.0,-105.0
1465,166.0,-945.0,207.0,105.0,72.0,-163.0
1466,189.0,-935.0,214.0,90.0,68.0,-185.0
1467,211.0,-946.0,195.0,60.0,61.0,-181.0
1468,205.0,-951.0,199.0,64.0,70.0,-161.0
1469,175.0,-946.0,209.0,72.0,75.0,-147.0
1470,194.0,-963.0,195.0,52.0,61.0,-151.0
1471,169.0,-948.0,212.0,106.0,71.0,52.0
1472,166.0,-951.0,213.0,96.0,61.0,26.0
1473,180.0,-954.0,207.0,81.0,52.0,-7.0
1474,200.0,-953.0,203.0,72.0,48.0,-25.0
1475,211.0,-937.0,216.0,79.0,49.0,-21.0
1476,209.0,-945.0,214.0,61.0,53.0,-3.0
1477,215.0,-952.0,205.0,51.0,55.0,13.0
1478,212.0,-949.0,209.0,58.0,60.0,33.0
1479,200.0,-957.0,208.0,58.0,65.0,50.0
1480,206.0,-960.0,216.0,-17.0,84.0,-42.0
1481,215.0,-950.0,217.0,50.0,124.0,55.0
1482,210.0,-952.0,219.0,50.0,136.0,68.0
1483,207.0,-959.0,218.0,49.0,145.0,79.0
1484,214.0,-959.0,217.0,56.0,151.0,89.0
1485,199.0,-965.0,220.0,62.0,165.0,99.0
1486,181.0,-967.0,219.0,65.0,173.0,100.0
1487,181.0,-962.0,225.0,72.0,169.0,93.0
1488,172.0,-956.0,231.0,69.0,167.0,87.0
1489,168.0,-967.0,229.0,59.0,163.0,77.0
1490,192.0,-975.0,225.0,59.0,148.0,69.0
1491,155.0,-1038.0,271.0,523.0,373.0,-239.0
1492,146.0,-999.0,278.0,540.0,383.0,-271.0
1493,135.0,-965.0,292.0,560.0,391.0,-278.0
1494,111.0,-939.0,299.0,560.0,402.0,-267.0
1495,120.0,-925.0,286.0,548.0,383.0,-247.0
1496,142.0,-915.0,292.0,541.0,365.0,-235.0
1497,166.0,-898.0,296.0,532.0,352.0,-229.0
1498,185.0,-894.0,300.0,515.0,350.0,-226.0
1499,185.0,-888.0,301.0,501.0,358.0,-230.0
1500,155.0,-895.0,301.0,487.0,372.0,-232.0
1501,141.0,-895.0,313.0,485.0,361.0,-224.0
1502,144.0,-905.0,383.0,637.0,271.0,-292.0
1503,142.0,-876.0,403.0,642.0,251.0,-286.0
1504,160.0,-860.0,410.0,633.0,224.0,-273.0
1505,157.0,-845.0,414.0,620.0,223.0,-279.0
1506,134.0,-836.0,419.0,606.0,230.0,-283.0
1507,142.0,-814.0,439.0,598.0,201.0,-268.0
1508,161.0,-795.0,445.0,583.0,171.0,-241.0
1509,184.0,-770.0,454.0,565.0,150.0,-230.0
1510,186.0,-776.0,472.0,525.0,147.0,-228.0
1511,203.0,-783.0,475.0,499.0,129.0,-234.0
1512,223.0,-781.0,475.0,485.0,117.0,-228.0
1513,102.0,-785.0,543.0,189.0,249.0,-170.0
1514,103.0,-776.0,553.0,194.0,184.0,-119.0
1515,169.0,-747.0,548.0,199.0,91.0,-88.0
1516,191.0,-748.0,540.0,168.0,83.0,-92.0
1517,200.0,-760.0,544.0,138.0,81.0,-86.0
1518,231.0,-758.0,545.0,128.0,57.0,-54.0
1519,300.0,-720.0,539.0,129.0,21.0,-33.0
1520,332.0,-723.0,540.0,90.0,47.0,-61.0
1521,336.0,-747.0,539.0,45.0,100.0,-98.0
1522,347.0,-752.0,536.0,26.0,131.0,-108.0
1523,361.0,-755.0,532.0,3.0,173.0,-140.0
1524,525.0,-842.0,479.0,-104.0,895.0,-792.0
1525,1011.0,-539.0,-389.0,-2502.0,3980.0,-1463.0
1526,512.0,-669.0,-376.0,-2726.0,4597.0,-1394.0
1527,225.0,-832.0,-354.0,-2891.0,4689.0,-1276.0
1528,129.0,-990.0,-307.0,-2944.0,4543.0,-1181.0
1529,112.0,-1037.0,-245.0,-2811.0,4336.0,-1095.0
1530,178.0,-1058.0,-159.0,-2638.0,4095.0,-1085.0
1531,291.0,-1109.0,-121.0,-2489.0,3898.0,-1164.0
1532,354.0,-1099.0,-100.0,-2271.0,3798.0,-1267.0
1533,326.0,-1048.0,-148.0,-1677.0,3879.0,-1615.0
1534,-1004.0,-1376.0,-88.0,-1409.0,1836.0,-113.0
1535,650.0,-1109.0,70.0,176.0,-402.0,-262.0
1536,250.0,-1023.0,142.0,172.0,-131.0,-134.0
1537,191.0,-966.0,189.0,194.0,-130.0,-160.0
1538,314.0,-895.0,211.0,199.0,-174.0,-208.0
1539,323.0,-880.0,210.0,148.0,-90.0,-168.0
1540,361.0,-899.0,209.0,99.0,-12.0,-114.0
1541,307.0,-902.0,215.0,63.0,73.0,-56.0
1542,268.0,-929.0,199.0,10.0,106.0,-5.0
1543,213.0,-943.0,192.0,-11.0,122.0,17.0
1544,165.0,-953.0,200.0,-22.0,118.0,-6.0
1545,147.0,-954.0,203.0,-32.0,90.0,-58.0
1546,233.0,-936.0,187.0,-96.0,117.0,-115.0
1547,226.0,-937.0,186.0,-113.0,130.0,-122.0
1548,233.0,-940.0,181.0,-128.0,136.0,-132.0
1549,239.0,-944.0,177.0,-135.0,140.0,-134.0
1550,250.0,-935.0,183.0,-103.0,149.0,-107.0
1551,247.0,-945.0,176.0,-119.0,153.0,-92.0
1552,241.0,-953.0,171.0,-128.0,162.0,-89.0
1553,245.0,-946.0,176.0,-123.0,166.0,-89.0
1554,246.0,-941.0,178.0,-127.0,171.0,-87.0
1555,245.0,-949.0,168.0,-139.0,178.0,-85.0
1556,243.0,-964.0,151.0,-143.0,190.0,-88.0
1557,238.0,-969.0,145.0,-128.0,198.0,-93.0
1558,242.0,-971.0,141.0,-105.0,197.0,-95.0
1559,257.0,-951.0,155.0,-22.0,145.0,-3.0
1560,195.0,-911.0,218.0,-244.0,259.0,-108.0
1561,252.0,-911.0,215.0,-338.0,273.0,-162.0
1562,241.0,-889.0,232.0,-437.0,340.0,-206.0
1563,313.0,-883.0,212.0,-576.0,383.0,-248.0
1564,314.0,-897.0,207.0,-743.0,502.0,-271.0
1565,248.0,-932.0,198.0,-883.0,609.0,-273.0
1566,331.0,-964.0,125.0,-1000.0,620.0,-300.0
1567,401.0,-970.0,76.0,-1070.0,701.0,-310.0
1568,467.0,-983.0,58.0,-1116.0,846.0,-287.0
1569,174.0,-1005.0,115.0,-475.0,3190.0,-43.0
1570,200.0,-992.0,80.0,-438.0,3179.0,-14.0
1571,240.0,-952.0,39.0,-392.0,3206.0,6.0
1572,239.0,-925.0,-5.0,-375.0,3272.0,8.0
1573,234.0,-903.0,-41.0,-368.0,3337.0,0.0
1574,224.0,-911.0,-74.0,-384.0,3393.0,0.0
1575,220.0,-914.0,-105.0,-391.0,3438.0,20.0
1576,214.0,-918.0,-134.0,-395.0,3479.0,41.0
1577,193.0,-917.0,-158.0,-392.0,3507.0,48.0
1578,204.0,-880.0,-183.0,-380.0,3510.0,56.0
1579,196.0,-862.0,-199.0,-405.0,3517.0,62.0
1580,200.0,-888.0,-225.0,-499.0,3500.0,87.0
1581,689.0,-893.0,543.0,647.0,-220.0,-161.0
1582,395.0,-931.0,335.0,24.0,-51.0,207.0
1583,139.0,-1147.0,102.0,-411.0,101.0,331.0
1584,104.0,-1270.0,-78.0,-399.0,74.0,227.0
1585,94.0,-1210.0,-54.0,-84.0,86.0,81.0
1586,199.0,-1058.0,46.0,162.0,71.0,-28.0
1587,223.0,-967.0,109.0,217.0,117.0,-36.0
1588,208.0,-934.0,150.0,201.0,136.0,7.0
1589,227.0,-953.0,129.0,154.0,117.0,49.0
1590,222.0,-950.0,105.0,159.0,104.0,99.0
1591,165.0,-935.0,143.0,194.0,104.0,142.0
1592,124.0,-904.0,211.0,200.0,69.0,145.0
1593,106.0,-926.0,220.0,116.0,24.0,110.0
1594,112.0,-998.0,132.0,9.0,-14.0,59.0
1595,124.0,-1042.0,76.0,25.0,-34.0,2.0
1596,185.0,-961.0,141.0,164.0,-81.0,-96.0
1597,189.0,-971.0,143.0,-73.0,72.0,-260.0
1598,202.0,-964.0,140.0,-74.0,74.0,-270.0
1599,207.0,-964.0,146.0,-88.0,85.0,-275.0
1600,212.0,-967.0,140.0,-99.0,96.0,-275.0
1601,226.0,-967.0,134.0,-109.0,107.0,-273.0
1602,224.0,-970.0,126.0,-107.0,126.0,-260.0
1603,235.0,-954.0,141.0,-95.0,135.0,-252.0
1604,222.0,-947.0,153.0,-95.0,147.0,-240.0
1605,228.0,-961.0,133.0,-127.0,153.0,-233.0
1606,231.0,-964.0,130.0,-126.0,154.0,-223.0
1607,236.0,-960.0,123.0,4.0,141.0,43.0
1608,234.0,-968.0,117.0,12.0,137.0,64.0
1609,231.0,-959.0,125.0,33.0,129.0,84.0
1610,231.0,-961.0,126.0,40.0,120.0,106.0
1611,228.0,-957.0,128.0,51.0,111.0,127.0
1612,205.0,-963.0,131.0,71.0,103.0,143.0
1613,200.0,-964.0,131.0,67.0,94.0,136.0
1614,196.0,-962.0,139.0,65.0,83.0,125.0
1615,189.0,-956.0,147.0,59.0,76.0,109.0
1616,187.0,-964.0,142.0,36.0,71.0,87.0
1617,194.0,-972.0,134.0,22.0,65.0,63.0
1618,192.0,-974.0,133.0,19.0,61.0,42.0
1619,197.0,-971.0,131.0,22.0,56.0,23.0
1620,211.0,-982.0,120.0,23.0,56.0,8.0
1621,202.0,-962.0,150.0,24.0,74.0,29.0
1622,225.0,-1080.0,187.0,262.0,170.0,47.0
1623,190.0,-1194.0,211.0,748.0,232.0,-195.0
1624,211.0,-1228.0,214.0,807.0,247.0,-199.0
1625,246.0,-1227.0,211.0,883.0,261.0,-218.0
1626,267.0,-1229.0,215.0,957.0,298.0,-245.0
1627,288.0,-1241.0,213.0,1028.0,350.0,-277.0
1628,295.0,-1216.0,205.0,1129.0,419.0,-315.0
1629,293.0,-1188.0,212.0,1214.0,488.0,-347.0
1630,295.0,-1168.0,206.0,1270.0,551.0,-364.0
1631,277.0,-1093.0,225.0,1349.0,608.0,-359.0
1632,250.0,-1028.0,236.0,1368.0,647.0,-352.0
1633,260.0,-943.0,241.0,1365.0,664.0,-337.0
1634,209.0,-796.0,265.0,1362.0,701.0,-311.0
1635,203.0,-677.0,319.0,1276.0,671.0,-316.0
1636,128.0,-600.0,372.0,1136.0,660.0,-346.0
1637,89.0,-545.0,359.0,987.0,587.0,-395.0
1638,126.0,-800.0,178.0,-1564.0,-250.0,-14.0
1639,195.0,-892.0,233.0,92.0,76.0,-76.0
1640,166.0,-915.0,232.0,62.0,87.0,-38.0
1641,147.0,-927.0,229.0,50.0,80.0,-14.0
1642,150.0,-932.0,228.0,42.0,62.0,-1.0
1643,156.0,-937.0,227.0,34.0,49.0,11.0
1644,151.0,-947.0,225.0,22.0,48.0,21.0
1645,162.0,-942.0,228.0,20.0,43.0,27.0
1646,158.0,-949.0,223.0,8.0,50.0,34.0
1647,149.0,-953.0,227.0,-2.0,70.0,-10.0
1648,144.0,-967.0,220.0,10.0,64.0,-74.0
1649,117.0,-955.0,223.0,21.0,39.0,-140.0
1650,186.0,-923.0,234.0,-6.0,5.0,-98.0
1651,182.0,-935.0,235.0,-21.0,16.0,-96.0
1652,172.0,-934.0,229.0,-26.0,25.0,-98.0
1653,153.0,-963.0,224.0,-36.0,32.0,-103.0
1654,167.0,-952.0,228.0,-21.0,15.0,-117.0
1655,180.0,-946.0,226.0,-20.0,6.0,-118.0
1656,214.0,-941.0,222.0,-21.0,0.0,-109.0
1657,211.0,-935.0,231.0,-26.0,14.0,-89.0
1658,199.0,-949.0,224.0,-45.0,27.0,-71.0
1659,201.0,-950.0,223.0,-45.0,31.0,-59.0
1660,214.0,-934.0,226.0,-41.0,34.0,-44.0
1661,169.0,-967.0,215.0,-65.0,52.0,18.0
1662,183.0,-975.0,208.0,-71.0,50.0,6.0
1663,194.0,-975.0,204.0,-66.0,52.0,6.0
1664,183.0,-974.0,201.0,-60.0,58.0,12.0
1665,177.0,-957.0,213.0,-43.0,57.0,13.0
1666,185.0,-949.0,216.0,-45.0,54.0,12.0
1667,186.0,-947.0,213.0,-52.0,56.0,17.0
1668,177.0,-958.0,208.0,-59.0,61.0,21.0
1669,176.0,-969.0,205.0,-56.0,61.0,20.0
1670,185.0,-972.0,204.0,-51.0,60.0,18.0
1671,188.0,-969.0,204.0,-44.0,65.0,19.0
1672,149.0,-921.0,226.0,-6.0,41.0,-30.0
1673,148.0,-916.0,231.0,-27.0,30.0,-48.0
1674,147.0,-917.0,233.0,-56.0,21.0,-67.0
1675,166.0,-936.0,225.0,-92.0,7.0,-83.0
1676,186.0,-951.0,219.0,-115.0,-1.0,-87.0
1677,206.0,-969.0,206.0,-134.0,-1.0,-78.0
1678,231.0,-1004.0,177.0,-146.0,7.0,-60.0
1679,254.0,-1051.0,145.0,-124.0,26.0,-28.0
1680,275.0,-1090.0,93.0,-66.0,63.0,16.0
1681,219.0,-1015.0,165.0,73.0,108.0,72.0
1682,194.0,-970.0,201.0,113.0,124.0,107.0
1683,155.0,-941.0,219.0,-11.0,160.0,82.0
1684,153.0,-953.0,210.0,-22.0,157.0,88.0
1685,156.0,-963.0,207.0,-19.0,153.0,93.0
1686,157.0,-971.0,207.0,-11.0,152.0,97.0
1687,148.0,-981.0,205.0,-6.0,154.0,98.0
1688,135.0,-994.0,207.0,4.0,158.0,89.0
1689,93.0,-932.0,240.0,117.0,179.0,0.0
1690,109.0,-935.0,237.0,115.0,154.0,-17.0
1691,117.0,-937.0,239.0,114.0,138.0,-27.0
1692,127.0,-935.0,240.0,111.0,125.0,-34.0
1693,135.0,-937.0,238.0,105.0,119.0,-39.0
1694,129.0,-939.0,237.0,100.0,118.0,-42.0
1695,122.0,-941.0,237.0,96.0,115.0,-47.0
1696,125.0,-950.0,244.0,90.0,107.0,-51.0
1697,139.0,-946.0,244.0,87.0,99.0,-53.0
1698,148.0,-942.0,243.0,80.0,102.0,-52.0
1699,152.0,-939.0,245.0,73.0,108.0,-50.0
1700,112.0,-946.0,264.0,176.0,67.0,-74.0
1701,122.0,-946.0,265.0,170.0,55.0,-74.0
1702,140.0,-940.0,266.0,166.0,45.0,-72.0
1703,147.0,-937.0,268.0,160.0,45.0,-71.0
1704,172.0,-933.0,270.0,138.0,71.0,-68.0
1705,167.0,-923.0,270.0,129.0,89.0,-70.0
1706,153.0,-920.0,270.0,114.0,106.0,-69.0
1707,149.0,-916.0,276.0,103.0,112.0,-67.0
1708,138.0,-928.0,279.0,89.0,117.0,-66.0
1709,134.0,-938.0,277.0,82.0,114.0,-63.0
1710,140.0,-932.0,281.0,86.0,109.0,-61.0
1711,126.0,-953.0,284.0,77.0,111.0,-61.0
1712,134.0,-956.0,286.0,83.0,101.0,-60.0
1713,173.0,-890.0,307.0,198.0,59.0,-33.0
1714,140.0,-1022.0,322.0,144.0,182.0,-30.0
1715,120.0,-1027.0,326.0,169.0,185.0,-37.0
1716,98.0,-1035.0,334.0,197.0,177.0,-37.0
1717,88.0,-1056.0,335.0,225.0,158.0,-36.0
1718,94.0,-1057.0,332.0,266.0,134.0,-41.0
1719,94.0,-1038.0,333.0,311.0,117.0,-48.0
1720,90.0,-1028.0,332.0,338.0,106.0,-58.0
1721,87.0,-1013.0,333.0,367.0,94.0,-69.0
1722,226.0,-1009.0,419.0,325.0,227.0,-195.0
1723,215.0,-1087.0,416.0,349.0,251.0,-209.0
1724,190.0,-1121.0,419.0,424.0,278.0,-203.0
1725,164.0,-1185.0,435.0,484.0,306.0,-203.0
1726,182.0,-1234.0,405.0,567.0,300.0,-192.0
1727,179.0,-1245.0,398.0,686.0,315.0,-217.0
1728,147.0,-1301.0,398.0,758.0,350.0,-249.0
1729,118.0,-1341.0,386.0,863.0,360.0,-266.0
1730,60.0,-1364.0,380.0,995.0,365.0,-275.0
1731,-29.0,-1393.0,380.0,1120.0,367.0,-281.0
1732,-75.0,-1416.0,364.0,1257.0,295.0,-253.0
1733,-90.0,-1428.0,326.0,1559.0,160.0,-201.0
1734,339.0,-755.0,-403.0,-2234.0,-1141.0,1298.0
1735,384.0,-832.0,-386.0,-2341.0,-1148.0,1252.0
1736,339.0,-937.0,-351.0,-2438.0,-1113.0,1181.0
1737,339.0,-1028.0,-320.0,-2481.0,-1156.0,1117.0
1738,400.0,-1109.0,-302.0,-2511.0,-1233.0,1079.0
1739,494.0,-1185.0,-263.0,-2535.0,-1288.0,1048.0
1740,591.0,-1268.0,-219.0,-2558.0,-1313.0,1006.0
1741,662.0,-1289.0,-166.0,-2546.0,-1304.0,928.0
1742,678.0,-1345.0,-92.0,-2580.0,-1269.0,804.0
1743,727.0,-1466.0,-37.0,-2639.0,-1274.0,664.0
1744,751.0,-1558.0,42.0,-2596.0,-1247.0,536.0
1745,704.0,-1640.0,130.0,-2513.0,-1168.0,438.0
1746,644.0,-1686.0,202.0,-2388.0,-1109.0,371.0
1747,573.0,-1592.0,279.0,-2191.0,-1083.0,285.0
1748,463.0,-1527.0,336.0,-2145.0,-1060.0,134.0
1749,45.0,-1055.0,607.0,-528.0,-659.0,-113.0
1750,337.0,-1040.0,-57.0,-40.0,-689.0,-339.0
1751,382.0,-921.0,-25.0,139.0,-566.0,-340.0
1752,331.0,-973.0,-23.0,88.0,-371.0,-330.0
1753,300.0,-1020.0,-19.0,96.0,-226.0,-304.0
1754,282.0,-1019.0,-13.0,168.0,-115.0,-289.0
1755,242.0,-1074.0,-33.0,215.0,-15.0,-286.0
1756,296.0,-1061.0,-91.0,324.0,36.0,-268.0
1757,307.0,-995.0,-102.0,431.0,156.0,-236.0
1758,251.0,-1006.0,-75.0,451.0,285.0,-185.0
1759,101.0,-993.0,-100.0,484.0,331.0,100.0
1760,71.0,-1019.0,144.0,539.0,50.0,-675.0
1761,-33.0,-846.0,336.0,649.0,214.0,-750.0
1762,81.0,-913.0,201.0,288.0,-23.0,-823.0
1763,186.0,-1079.0,21.0,31.0,-45.0,-841.0
1764,295.0,-1040.0,11.0,193.0,-81.0,-793.0
1765,296.0,-957.0,74.0,311.0,23.0,-537.0
1766,265.0,-909.0,125.0,319.0,40.0,-407.0
1767,284.0,-879.0,137.0,259.0,30.0,-309.0
1768,255.0,-901.0,116.0,171.0,50.0,-200.0
1769,103.0,-963.0,116.0,126.0,98.0,-129.0
1770,138.0,-964.0,97.0,131.0,58.0,-185.0
1771,122.0,-926.0,116.0,167.0,60.0,-228.0
1772,146.0,-939.0,117.0,149.0,38.0,-259.0
1773,168.0,-933.0,126.0,154.0,12.0,-280.0
1774,234.0,-962.0,112.0,91.0,115.0,-170.0
1775,291.0,-959.0,117.0,117.0,101.0,-188.0
1776,245.0,-951.0,154.0,100.0,109.0,-48.0
1777,233.0,-968.0,149.0,86.0,120.0,-53.0
1778,265.0,-971.0,141.0,73.0,117.0,-61.0
1779,273.0,-978.0,139.0,74.0,117.0,-39.0
1780,278.0,-972.0,153.0,83.0,115.0,-5.0
1781,294.0,-960.0,148.0,84.0,106.0,46.0
1782,276.0,-938.0,176.0,98.0,105.0,120.0
1783,268.0,-918.0,193.0,83.0,95.0,211.0
1784,262.0,-878.0,197.0,65.0,67.0,343.0
1785,299.0,-862.0,171.0,63.0,25.0,478.0
1786,279.0,-909.0,160.0,72.0,41.0,568.0
1787,268.0,-958.0,199.0,293.0,159.0,-355.0
1788,251.0,-983.0,198.0,290.0,172.0,-340.0
1789,253.0,-1010.0,196.0,296.0,149.0,-332.0
1790,259.0,-1013.0,199.0,334.0,144.0,-348.0
1791,245.0,-1008.0,218.0,366.0,141.0,-357.0
1792,265.0,-996.0,203.0,376.0,130.0,-343.0
1793,301.0,-949.0,234.0,411.0,118.0,-322.0
1794,240.0,-967.0,223.0,393.0,154.0,-307.0
1795,242.0,-982.0,224.0,411.0,138.0,-312.0
1796,277.0,-957.0,230.0,445.0,114.0,-322.0
1797,281.0,-959.0,305.0,495.0,195.0,-307.0
1798,369.0,-918.0,403.0,488.0,238.0,-418.0
1799,327.0,-1232.0,369.0,1095.0,746.0,-803.0
1800,333.0,-1218.0,365.0,1262.0,737.0,-818.0
1801,359.0,-1194.0,352.0,1388.0,734.0,-823.0
1802,361.0,-1230.0,373.0,1459.0,770.0,-834.0
1803,339.0,-1238.0,401.0,1573.0,811.0,-897.0
1804,278.0,-1273.0,451.0,1685.0,860.0,-951.0
1805,199.0,-1320.0,547.0,1839.0,868.0,-940.0
1806,227.0,-1271.0,596.0,2086.0,739.0,-829.0
1807,457.0,-1163.0,619.0,2313.0,497.0,-704.0
1808,545.0,-1040.0,587.0,2411.0,509.0,-647.0
1809,591.0,-993.0,588.0,2377.0,509.0,-582.0
1810,85.0,-229.0,-254.0,-1672.0,919.0,522.0
1811,-477.0,-182.0,-384.0,-3375.0,44.0,1484.0
1812,-45.0,-1026.0,-305.0,-3840.0,-908.0,1232.0
1813,-18.0,-929.0,-237.0,-3603.0,-1135.0,1107.0
1814,-24.0,-907.0,-198.0,-3621.0,-1356.0,978.0
1815,105.0,-1064.0,-176.0,-3797.0,-1647.0,913.0
1816,296.0,-1259.0,-108.0,-3868.0,-1851.0,910.0
1817,494.0,-1357.0,-16.0,-3790.0,-1892.0,918.0
1818,571.0,-1422.0,66.0,-3724.0,-1732.0,892.0
1819,437.0,-1570.0,150.0,-3738.0,-1433.0,894.0
1820,446.0,-1670.0,233.0,-3689.0,-1285.0,982.0
1821,515.0,-1745.0,300.0,-3649.0,-1127.0,1120.0
1822,578.0,-1812.0,360.0,-3609.0,-900.0,1222.0
1823,416.0,-1144.0,648.0,-1330.0,138.0,-74.0
1824,-35.0,-1110.0,429.0,-461.0,-206.0,28.0
1825,-13.0,-1068.0,381.0,-324.0,-293.0,44.0
1826,13.0,-1033.0,369.0,-206.0,-368.0,38.0
1827,87.0,-1047.0,384.0,-113.0,-435.0,21.0
1828,143.0,-1039.0,409.0,0.0,-457.0,12.0
1829,174.0,-999.0,435.0,128.0,-457.0,-17.0
1830,203.0,-1010.0,450.0,226.0,-470.0,-81.0
1831,253.0,-1236.0,459.0,347.0,-489.0,-141.0
1832,257.0,-1153.0,501.0,758.0,-496.0,-202.0
1833,279.0,-986.0,445.0,1112.0,-505.0,-251.0
1834,244.0,-637.0,455.0,1198.0,-450.0,-256.0
1835,166.0,-755.0,249.0,661.0,-390.0,-162.0
1836,168.0,-1576.0,-1055.0,1685.0,-288.0,-209.0
1837,33.0,-1182.0,-343.0,2526.0,-37.0,-500.0
1838,165.0,-704.0,254.0,2705.0,-291.0,-420.0
1839,233.0,-803.0,282.0,1835.0,-246.0,-415.0
1840,238.0,-866.0,164.0,1355.0,-96.0,-411.0
1841,180.0,-780.0,128.0,1199.0,12.0,-369.0
1842,117.0,-871.0,35.0,947.0,53.0,-343.0
1843,30.0,-1016.0,-97.0,831.0,22.0,-378.0
1844,-20.0,-1160.0,-208.0,924.0,-47.0,-459.0
1845,-70.0,-1183.0,-194.0,1195.0,-103.0,-560.0
1846,48.0,-820.0,172.0,281.0,47.0,-477.0
1847,235.0,-1004.0,207.0,418.0,113.0,-179.0
1848,256.0,-1043.0,185.0,417.0,107.0,-193.0
1849,228.0,-1019.0,196.0,474.0,130.0,-226.0
1850,229.0,-1017.0,206.0,497.0,126.0,-234.0
1851,232.0,-996.0,209.0,517.0,128.0,-236.0
1852,209.0,-984.0,223.0,530.0,132.0,-253.0
1853,187.0,-977.0,234.0,537.0,126.0,-252.0
1854,181.0,-993.0,229.0,526.0,112.0,-254.0
1855,223.0,-974.0,237.0,555.0,77.0,-243.0
1856,225.0,-961.0,251.0,564.0,80.0,-258.0
1857,225.0,-970.0,244.0,545.0,90.0,-261.0
1858,213.0,-883.0,338.0,564.0,219.0,-393.0
1859,248.0,-860.0,346.0,557.0,207.0,-406.0
1860,247.0,-848.0,356.0,541.0,212.0,-420.0
1861,226.0,-857.0,370.0,519.0,216.0,-433.0
1862,212.0,-885.0,381.0,501.0,201.0,-442.0
1863,233.0,-911.0,385.0,495.0,174.0,-433.0
1864,297.0,-925.0,384.0,508.0,146.0,-399.0
1865,406.0,-900.0,384.0,532.0,131.0,-363.0
1866,449.0,-913.0,388.0,534.0,175.0,-354.0
1867,440.0,-1020.0,401.0,667.0,538.0,-522.0
1868,44.0,-1033.0,786.0,2175.0,1012.0,-1000.0
1869,233.0,-1003.0,786.0,2227.0,642.0,-873.0
1870,464.0,-927.0,769.0,2288.0,435.0,-791.0
1871,538.0,-890.0,755.0,2277.0,549.0,-729.0
1872,487.0,-964.0,740.0,2219.0,743.0,-656.0
1873,412.0,-1005.0,651.0,2273.0,834.0,-631.0
1874,380.0,-879.0,592.0,2461.0,766.0,-645.0
1875,345.0,-786.0,539.0,2505.0,711.0,-683.0
1876,329.0,-788.0,479.0,2454.0,659.0,-703.0
1877,-279.0,-261.0,-149.0,-3245.0,690.0,1477.0
1878,-491.0,-464.0,-184.0,-3840.0,548.0,1766.0
1879,-530.0,-837.0,-280.0,-4236.0,233.0,1949.0
1880,-266.0,-967.0,-362.0,-4025.0,-271.0,1994.0
1881,-91.0,-883.0,-307.0,-3633.0,-503.0,1948.0
1882,-62.0,-887.0,-274.0,-3546.0,-565.0,1859.0
1883,-34.0,-939.0,-209.0,-3551.0,-721.0,1709.0
1884,36.0,-1018.0,-183.0,-3496.0,-936.0,1546.0
1885,146.0,-1037.0,-121.0,-3358.0,-1150.0,1404.0
1886,268.0,-1075.0,-93.0,-3314.0,-1314.0,1296.0
1887,377.0,-1125.0,-72.0,-3291.0,-1405.0,1203.0
1888,613.0,-1504.0,271.0,-3070.0,-246.0,481.0
1889,417.0,-1301.0,356.0,963.0,-1176.0,-606.0
1890,489.0,-1193.0,311.0,1680.0,-1199.0,-560.0
1891,402.0,-1035.0,382.0,2222.0,-966.0,-405.0
1892,355.0,-1171.0,529.0,2289.0,-638.0,-239.0
1893,310.0,-1145.0,546.0,2405.0,-320.0,-48.0
1894,280.0,-576.0,703.0,2615.0,-185.0,105.0
1895,241.0,-545.0,647.0,1761.0,-83.0,207.0
1896,18.0,-1306.0,-101.0,449.0,235.0,266.0
1897,-232.0,-1765.0,-701.0,285.0,367.0,49.0
1898,292.0,-1931.0,-1118.0,677.0,-49.0,-355.0
1899,411.0,-1677.0,-882.0,1666.0,142.0,-477.0
1900,244.0,-1024.0,155.0,257.0,51.0,-433.0
1901,140.0,-967.0,187.0,328.0,282.0,3.0
1902,193.0,-997.0,221.0,349.0,164.0,-494.0
1903,275.0,-991.0,200.0,355.0,135.0,-485.0
1904,305.0,-969.0,226.0,386.0,144.0,-488.0
1905,324.0,-959.0,228.0,363.0,185.0,-502.0
1906,270.0,-997.0,228.0,343.0,244.0,-508.0
1907,245.0,-975.0,244.0,374.0,243.0,-501.0
1908,235.0,-981.0,240.0,387.0,235.0,-490.0
1909,257.0,-960.0,242.0,410.0,219.0,-460.0
1910,268.0,-953.0,255.0,428.0,218.0,-430.0
1911,265.0,-890.0,328.0,334.0,285.0,-270.0
1912,257.0,-863.0,339.0,337.0,281.0,-274.0
1913,234.0,-870.0,349.0,323.0,283.0,-284.0
1914,229.0,-897.0,342.0,308.0,271.0,-286.0
1915,260.0,-909.0,346.0,321.0,242.0,-286.0
1916,314.0,-909.0,344.0,336.0,225.0,-280.0
1917,338.0,-928.0,345.0,349.0,235.0,-289.0
1918,333.0,-932.0,355.0,369.0,256.0,-301.0
1919,338.0,-938.0,365.0,391.0,266.0,-306.0
1920,334.0,-954.0,364.0,409.0,283.0,-305.0
1921,311.0,-978.0,368.0,436.0,299.0,-317.0
1922,438.0,-1246.0,417.0,853.0,816.0,-661.0
1923,-489.0,-391.0,-216.0,-2408.0,1083.0,966.0
1924,-393.0,-253.0,-277.0,-2606.0,875.0,1128.0
1925,-404.0,-278.0,-344.0,-3071.0,892.0,1211.0
1926,-475.0,-410.0,-434.0,-3546.0,863.0,1309.0
1927,-326.0,-567.0,-513.0,-3824.0,590.0,1406.0
1928,-162.0,-716.0,-590.0,-3909.0,474.0,1452.0
1929,-227.0,-799.0,-547.0,-3785.0,556.0,1444.0
1930,-337.0,-746.0,-503.0,-3607.0,523.0,1391.0
1931,-315.0,-635.0,-486.0,-3578.0,300.0,1355.0
1932,-196.0,-664.0,-469.0,-3827.0,14.0,1380.0
1933,-224.0,-965.0,-433.0,-4127.0,-135.0,1373.0
1934,677.0,-1794.0,193.0,-3777.0,-35.0,681.0
1935,569.0,-1595.0,1021.0,-2059.0,443.0,-113.0
1936,-163.0,-1106.0,523.0,4.0,34.0,-351.0
1937,-105.0,-1075.0,543.0,219.0,-169.0,-357.0
1938,-16.0,-1250.0,641.0,393.0,-328.0,-357.0
1939,-137.0,-1597.0,632.0,804.0,-453.0,-260.0
1940,41.0,-1543.0,840.0,1900.0,-715.0,-117.0
1941,2.0,-955.0,788.0,2654.0,-551.0,30.0
1942,-111.0,-689.0,741.0,2394.0,-469.0,19.0
1943,-6.0,-1747.0,-524.0,1660.0,-1575.0,620.0
1944,136.0,-1697.0,-1151.0,2406.0,-3105.0,1283.0
1945,396.0,-1959.0,-1869.0,1858.0,-764.0,-290.0
1946,95.0,-1638.0,-1163.0,2370.0,2492.0,-2025.0
1947,408.0,-567.0,704.0,2731.0,-270.0,-730.0
1948,427.0,-958.0,-57.0,680.0,153.0,-53.0
1949,226.0,-907.0,133.0,438.0,191.0,405.0
1950,144.0,-972.0,137.0,351.0,186.0,362.0
1951,209.0,-1006.0,74.0,289.0,133.0,259.0
1952,180.0,-994.0,100.0,313.0,154.0,195.0
1953,174.0,-967.0,127.0,309.0,140.0,116.0
1954,213.0,-968.0,104.0,256.0,111.0,47.0
1955,193.0,-924.0,146.0,266.0,105.0,15.0
1956,226.0,-939.0,125.0,203.0,88.0,-22.0
1957,243.0,-938.0,125.0,177.0,90.0,-44.0
1958,232.0,-924.0,136.0,159.0,102.0,-52.0
1959,216.0,-936.0,135.0,114.0,113.0,-75.0
1960,320.0,-932.0,124.0,-27.0,156.0,-315.0
1961,303.0,-959.0,110.0,-31.0,166.0,-267.0
1962,316.0,-967.0,101.0,-3.0,159.0,-233.0
1963,326.0,-962.0,100.0,39.0,155.0,-195.0
1964,315.0,-967.0,108.0,70.0,159.0,-160.0
1965,307.0,-957.0,119.0,98.0,155.0,-137.0
1966,309.0,-950.0,128.0,110.0,149.0,-116.0
1967,298.0,-948.0,127.0,118.0,149.0,-95.0
1968,295.0,-925.0,153.0,199.0,156.0,54.0
1969,290.0,-930.0,154.0,184.0,157.0,61.0
1970,276.0,-942.0,148.0,173.0,160.0,57.0
1971,281.0,-951.0,138.0,172.0,155.0,43.0
1972,263.0,-937.0,151.0,185.0,156.0,29.0
1973,226.0,-901.0,168.0,189.0,149.0,12.0
1974,226.0,-907.0,165.0,166.0,127.0,-21.0
1975,252.0,-926.0,163.0,139.0,101.0,-59.0
1976,367.0,-1014.0,174.0,492.0,161.0,-302.0
1977,480.0,-1399.0,236.0,2181.0,1464.0,-1011.0
1978,344.0,-1395.0,263.0,2398.0,1555.0,-1036.0
1979,219.0,-1376.0,320.0,2619.0,1539.0,-1022.0
1980,162.0,-1286.0,236.0,2854.0,1435.0,-977.0
1981,190.0,-1043.0,161.0,3090.0,1233.0,-858.0
1982,274.0,-869.0,261.0,3086.0,1015.0,-741.0
1983,180.0,-974.0,384.0,2766.0,1050.0,-649.0
1984,178.0,-1076.0,403.0,2631.0,878.0,-552.0
1985,-115.0,-297.0,287.0,3044.0,758.0,-526.0
1986,-554.0,-337.0,-313.0,-2438.0,606.0,1796.0
1987,-44.0,-1179.0,-145.0,-3441.0,-819.0,1428.0
1988,162.0,-1263.0,-133.0,-3425.0,-1205.0,1288.0
1989,372.0,-1312.0,-57.0,-3363.0,-1476.0,1154.0
1990,643.0,-1333.0,27.0,-3324.0,-1668.0,1040.0
1991,915.0,-1376.0,90.0,-3331.0,-1696.0,923.0
1992,988.0,-1449.0,152.0,-3327.0,-1472.0,784.0
1993,965.0,-1516.0,190.0,-3286.0,-1168.0,667.0
1994,929.0,-1554.0,214.0,-3213.0,-868.0,582.0
1995,815.0,-1559.0,228.0,-3138.0,-526.0,491.0
1996,686.0,-1516.0,239.0,-3087.0,-225.0,389.0
1997,613.0,-1538.0,233.0,-3133.0,19.0,335.0
1998,583.0,-1599.0,240.0,-3187.0,242.0,344.0
1999,604.0,-1684.0,285.0,-3191.0,453.0,364.0
2000,665.0,-1739.0,366.0,-3111.0,662.0,338.0
2001,751.0,-1655.0,469.0,-2934.0,872.0,239.0
2002,-16.0,-1156.0,1286.0,1137.0,-178.0,-84.0
2003,198.0,-977.0,127.0,264.0,206.0,307.0
2004,55.0,-946.0,202.0,389.0,255.0,297.0
2005,4.0,-915.0,232.0,349.0,195.0,206.0
2006,30.0,-945.0,202.0,214.0,141.0,51.0
2007,64.0,-969.0,188.0,142.0,130.0,-103.0
2008,109.0,-987.0,167.0,94.0,114.0,-222.0
2009,145.0,-998.0,144.0,74.0,105.0,-306.0
2010,125.0,-987.0,160.0,89.0,117.0,-367.0
2011,115.0,-991.0,158.0,68.0,116.0,-432.0
2012,171.0,-998.0,143.0,43.0,96.0,-492.0
2013,241.0,-969.0,148.0,71.0,79.0,-488.0
2014,231.0,-957.0,169.0,55.0,122.0,-146.0
2015,213.0,-955.0,179.0,-10.0,87.0,-44.0
2016,200.0,-942.0,185.0,-7.0,89.0,-46.0
2017,199.0,-948.0,190.0,-13.0,86.0,-55.0
2018,224.0,-956.0,177.0,-21.0,75.0,-63.0
2019,221.0,-956.0,181.0,-12.0,77.0,-55.0
2020,225.0,-964.0,181.0,-10.0,76.0,-45.0
2021,244.0,-963.0,178.0,-9.0,71.0,-35.0
2022,244.0,-969.0,174.0,-9.0,75.0,-13.0
2023,243.0,-975.0,192.0,159.0,90.0,-60.0
2024,245.0,-988.0,189.0,166.0,101.0,-57.0
2025,240.0,-990.0,198.0,184.0,113.0,-57.0
2026,237.0,-1002.0,197.0,199.0,119.0,-62.0
2027,242.0,-1007.0,205.0,223.0,108.0,-69.0
2028,255.0,-973.0,201.0,251.0,121.0,-76.0
2029,242.0,-985.0,203.0,253.0,135.0,-72.0
2030,245.0,-986.0,214.0,272.0,146.0,-83.0
2031,272.0,-996.0,210.0,286.0,148.0,-89.0
2032,330.0,-1048.0,227.0,429.0,183.0,-209.0
2033,327.0,-1008.0,233.0,464.0,218.0,-258.0
2034,246.0,-1054.0,237.0,453.0,267.0,-264.0
2035,216.0,-1053.0,249.0,479.0,250.0,-307.0
2036,202.0,-1086.0,247.0,488.0,235.0,-318.0
2037,236.0,-1082.0,256.0,532.0,201.0,-326.0
2038,268.0,-1072.0,261.0,565.0,199.0,-325.0
2039,266.0,-1055.0,266.0,598.0,229.0,-321.0
2040,247.0,-1054.0,272.0,615.0,260.0,-313.0
2041,213.0,-973.0,315.0,718.0,331.0,-329.0
2042,199.0,-971.0,381.0,2190.0,1175.0,-599.0
2043,215.0,-954.0,417.0,2153.0,1045.0,-533.0
2044,216.0,-771.0,439.0,2230.0,1005.0,-486.0
2045,201.0,-526.0,488.0,2203.0,987.0,-470.0
2046,88.0,-327.0,501.0,1960.0,916.0,-453.0
2047,26.0,-204.0,469.0,1621.0,707.0,-360.0
2048,134.0,-110.0,361.0,1242.0,371.0,-271.0
2049,348.0,58.0,192.0,884.0,144.0,-288.0
2050,621.0,131.0,17.0,380.0,189.0,-324.0
2051,798.0,150.0,-321.0,-208.0,626.0,-334.0
2052,298.0,288.0,-270.0,-666.0,1557.0,-321.0
2053,114.0,-614.0,162.0,-3278.0,222.0,556.0
2054,125.0,-913.0,149.0,-3539.0,183.0,651.0
2055,44.0,-1056.0,204.0,-3455.0,176.0,634.0
2056,-5.0,-1064.0,272.0,-3275.0,58.0,537.0
2057,12.0,-1116.0,285.0,-3215.0,-159.0,419.0
2058,25.0,-1108.0,356.0,-3119.0,-372.0,303.0
2059,106.0,-1212.0,429.0,-3125.0,-603.0,250.0
2060,319.0,-1323.0,483.0,-3065.0,-807.0,227.0
2061,456.0,-1401.0,557.0,-2903.0,-816.0,165.0
2062,508.0,-1415.0,635.0,-2681.0,-717.0,73.0
2063,515.0,-1429.0,703.0,-2483.0,-582.0,-1.0
2064,96.0,-739.0,579.0,1993.0,174.0,-38.0
2065,234.0,-713.0,553.0,1012.0,60.0,-11.0
2066,168.0,-890.0,362.0,316.0,207.0,20.0
2067,114.0,-961.0,205.0,108.0,220.0,28.0
2068,99.0,-956.0,154.0,119.0,192.0,10.0
2069,125.0,-942.0,178.0,172.0,159.0,1.0
2070,102.0,-916.0,217.0,194.0,155.0,24.0
2071,87.0,-921.0,231.0,145.0,155.0,28.0
2072,91.0,-950.0,209.0,82.0,150.0,5.0
2073,105.0,-980.0,184.0,45.0,141.0,-15.0
2074,127.0,-968.0,187.0,63.0,120.0,-18.0
2075,110.0,-978.0,181.0,-71.0,50.0,-108.0
2076,120.0,-971.0,184.0,-63.0,47.0,-111.0
2077,122.0,-975.0,180.0,-67.0,53.0,-111.0
2078,117.0,-970.0,183.0,-62.0,61.0,-109.0
2079,127.0,-979.0,180.0,-63.0,65.0,-110.0
2080,132.0,-985.0,174.0,-59.0,70.0,-104.0
2081,129.0,-976.0,179.0,-43.0,74.0,-94.0
2082,130.0,-976.0,179.0,-41.0,75.0,-86.0
2083,125.0,-975.0,176.0,-38.0,79.0,-78.0
2084,119.0,-973.0,179.0,-31.0,78.0,-72.0
2085,116.0,-974.0,173.0,-27.0,78.0,-71.0
2086,135.0,-965.0,182.0,21.0,40.0,-45.0
2087,139.0,-952.0,193.0,-65.0,36.0,-50.0
2088,162.0,-1025.0,148.0,-104.0,54.0,-47.0
2089,162.0,-1017.0,150.0,-68.0,64.0,-41.0
2090,146.0,-995.0,165.0,-34.0,71.0,-34.0
2091,136.0,-975.0,178.0,-24.0,71.0,-31.0
2092,137.0,-971.0,175.0,-29.0,67.0,-33.0
2093,138.0,-970.0,173.0,-32.0,68.0,-32.0
2094,138.0,-970.0,173.0,-30.0,70.0,-30.0
2095,136.0,-965.0,175.0,-27.0,72.0,-28.0
2096,145.0,-970.0,170.0,-23.0,68.0,-48.0
2097,142.0,-965.0,173.0,-24.0,69.0,-43.0
2098,140.0,-965.0,173.0,-30.0,70.0,-41.0
2099,138.0,-964.0,174.0,-36.0,72.0,-41.0
2100,137.0,-966.0,173.0,-42.0,72.0,-44.0
2101,140.0,-970.0,168.0,-47.0,73.0,-46.0
2102,140.0,-974.0,163.0,-49.0,74.0,-48.0
2103,143.0,-977.0,161.0,-47.0,75.0,-50.0
2104,143.0,-977.0,163.0,-43.0,76.0,-50.0
2105,141.0,-974.0,164.0,-38.0,76.0,-49.0
2106,143.0,-972.0,166.0,-36.0,74.0,-47.0
2107,147.0,-971.0,164.0,23.0,86.0,15.0
2108,137.0,-969.0,169.0,-9.0,80.0,-24.0
2109,134.0,-968.0,171.0,-10.0,82.0,-27.0
2110,135.0,-968.0,170.0,-10.0,80.0,-29.0
2111,137.0,-971.0,166.0,-11.0,81.0,-31.0
2112,134.0,-970.0,168.0,-7.0,80.0,-31.0
2113,138.0,-968.0,167.0,-3.0,77.0,-31.0
2114,136.0,-968.0,167.0,1.0,76.0,-30.0
2115,136.0,-969.0,168.0,2.0,73.0,-28.0