sequence,AccelerometerX,AccelerometerY,AccelerometerZ,GyroscopeX,GyroscopeY,GyroscopeZ
0,4.0,-975.0,218.0,1.0,67.0,-19.0
1,8.0,-971.0,219.0,7.0,64.0,-18.0
2,4.0,-969.0,222.0,7.0,65.0,-18.0
3,-1.0,-968.0,221.0,8.0,63.0,-20.0
4,-7.0,-965.0,224.0,9.0,61.0,-22.0
5,-17.0,-964.0,224.0,10.0,57.0,-30.0
6,-19.0,-968.0,222.0,8.0,48.0,-46.0
7,-1.0,-969.0,221.0,9.0,34.0,-62.0
8,4.0,-973.0,223.0,10.0,26.0,-69.0
9,17.0,-976.0,222.0,12.0,42.0,-12.0
10,0.0,-1005.0,219.0,29.0,58.0,30.0
11,-1.0,-1006.0,224.0,37.0,49.0,30.0
12,5.0,-1024.0,221.0,33.0,41.0,26.0
13,2.0,-1031.0,223.0,39.0,36.0,24.0
14,14.0,-1061.0,208.0,40.0,17.0,27.0
15,28.0,-1053.0,209.0,64.0,2.0,32.0
16,36.0,-1055.0,218.0,79.0,-8.0,39.0
17,29.0,-1058.0,229.0,89.0,-1.0,46.0
18,41.0,-1042.0,236.0,104.0,13.0,51.0
19,26.0,-1025.0,246.0,108.0,42.0,62.0
20,26.0,-1009.0,246.0,121.0,53.0,74.0
21,140.0,-838.0,230.0,-214.0,456.0,-136.0
22,-289.0,-1076.0,177.0,-5.0,-32.0,-279.0
23,-197.0,-1062.0,173.0,48.0,-155.0,-415.0
24,-158.0,-1067.0,163.0,90.0,-218.0,-524.0
25,-72.0,-1057.0,174.0,133.0,-284.0,-613.0
26,20.0,-1018.0,222.0,168.0,-332.0,-640.0
27,92.0,-991.0,237.0,152.0,-317.0,-603.0
28,248.0,-985.0,215.0,109.0,-307.0,-539.0
29,307.0,-964.0,215.0,94.0,-208.0,-416.0
30,224.0,-966.0,187.0,72.0,-48.0,-265.0
31,189.0,-959.0,212.0,78.0,13.0,-145.0
32,68.0,-937.0,273.0,95.0,68.0,-55.0
33,111.0,-992.0,221.0,54.0,8.0,-154.0
34,93.0,-969.0,234.0,-41.0,96.0,-160.0
35,103.0,-966.0,233.0,-44.0,105.0,-136.0
36,87.0,-970.0,225.0,-47.0,118.0,-109.0
37,88.0,-969.0,230.0,-42.0,116.0,-90.0
38,87.0,-961.0,234.0,-36.0,112.0,-77.0
39,96.0,-963.0,230.0,-35.0,108.0,-63.0
40,80.0,-961.0,235.0,-26.0,117.0,-46.0
41,81.0,-969.0,233.0,-25.0,117.0,-39.0
42,102.0,-982.0,209.0,-17.0,114.0,-35.0
43,75.0,-971.0,235.0,9.0,127.0,-21.0
44,96.0,-992.0,213.0,16.0,117.0,-17.0
45,86.0,-949.0,245.0,50.0,118.0,-1.0
46,103.0,-969.0,229.0,37.0,113.0,18.0
47,89.0,-957.0,240.0,47.0,127.0,37.0
48,86.0,-964.0,238.0,42.0,132.0,49.0
49,75.0,-1003.0,235.0,126.0,95.0,63.0
50,70.0,-967.0,267.0,157.0,98.0,153.0
51,-91.0,-1267.0,314.0,995.0,-9.0,539.0
52,-177.0,-1253.0,326.0,1122.0,-25.0,554.0
53,-186.0,-1225.0,351.0,1194.0,-129.0,493.0
54,-100.0,-1302.0,360.0,1198.0,-241.0,394.0
55,-101.0,-1378.0,364.0,1254.0,-252.0,368.0
56,-95.0,-1409.0,359.0,1358.0,-296.0,405.0
57,-21.0,-1401.0,342.0,1472.0,-395.0,433.0
58,-71.0,-1522.0,334.0,1547.0,-412.0,468.0
59,1.0,-1563.0,337.0,1714.0,-504.0,477.0
60,81.0,-1594.0,335.0,1888.0,-535.0,447.0
61,176.0,-1678.0,342.0,2022.0,-537.0,389.0
62,407.0,580.0,-1126.0,1028.0,296.0,442.0
63,293.0,1478.0,-1343.0,602.0,1152.0,521.0
64,-327.0,497.0,-1137.0,-2556.0,1716.0,438.0
65,204.0,-1439.0,-748.0,-5010.0,915.0,284.0
66,-31.0,-878.0,-855.0,-2834.0,1732.0,358.0
67,-405.0,18.0,-587.0,-1984.0,2073.0,449.0
68,-378.0,-630.0,-588.0,-3045.0,1684.0,371.0
69,-318.0,-714.0,-490.0,-3049.0,1356.0,380.0
70,-288.0,-546.0,-395.0,-2892.0,1075.0,370.0
71,-283.0,-591.0,-322.0,-3073.0,828.0,245.0
72,-245.0,-775.0,-256.0,-3285.0,525.0,117.0
73,-494.0,-1787.0,1237.0,-1918.0,464.0,-968.0
74,-910.0,-1117.0,132.0,633.0,108.0,-118.0
75,-499.0,-1094.0,228.0,547.0,-418.0,-397.0
76,-34.0,-1147.0,190.0,406.0,-671.0,-522.0
77,-5.0,-1089.0,130.0,342.0,-480.0,-497.0
78,-31.0,-1023.0,115.0,318.0,-366.0,-438.0
79,55.0,-973.0,152.0,312.0,-405.0,-373.0
80,99.0,-904.0,207.0,300.0,-376.0,-289.0
81,3.0,-893.0,262.0,234.0,-238.0,-226.0
82,-47.0,-985.0,187.0,187.0,252.0,-248.0
83,-47.0,-975.0,199.0,195.0,233.0,-252.0
84,-33.0,-969.0,204.0,180.0,210.0,-251.0
85,-40.0,-970.0,206.0,148.0,188.0,-232.0
86,-52.0,-972.0,213.0,123.0,153.0,-211.0
87,-57.0,-995.0,185.0,109.0,120.0,-209.0
88,-54.0,-985.0,186.0,122.0,88.0,-210.0
89,-48.0,-931.0,260.0,132.0,54.0,-212.0
90,0.0,-945.0,241.0,75.0,33.0,-220.0
91,-7.0,-983.0,201.0,36.0,57.0,-215.0
92,-1.0,-982.0,203.0,41.0,57.0,-196.0
93,36.0,-959.0,230.0,38.0,49.0,-164.0
94,43.0,-973.0,213.0,9.0,74.0,-119.0
95,-2.0,-980.0,204.0,4.0,117.0,-80.0
96,-2.0,-978.0,211.0,13.0,121.0,-64.0
97,-48.0,-966.0,229.0,115.0,200.0,-63.0
98,-19.0,-1009.0,186.0,92.0,175.0,-78.0
99,5.0,-1021.0,188.0,127.0,152.0,-72.0
100,20.0,-1004.0,201.0,179.0,142.0,-50.0
101,33.0,-1006.0,213.0,251.0,179.0,6.0
102,31.0,-1000.0,234.0,280.0,203.0,38.0
103,29.0,-990.0,237.0,288.0,246.0,60.0
104,1.0,-991.0,241.0,291.0,300.0,76.0
105,7.0,-1017.0,228.0,292.0,327.0,78.0
106,-50.0,-988.0,254.0,319.0,350.0,79.0
107,-46.0,-992.0,271.0,312.0,306.0,77.0
108,-39.0,-1059.0,256.0,288.0,280.0,88.0
109,-13.0,-1163.0,314.0,502.0,236.0,345.0
110,-112.0,-1281.0,323.0,633.0,298.0,396.0
111,-305.0,-1556.0,337.0,890.0,342.0,496.0
112,-414.0,-1103.0,287.0,1366.0,198.0,711.0
113,-4.0,-1476.0,301.0,1244.0,-170.0,685.0
114,44.0,-1423.0,360.0,1399.0,-120.0,732.0
115,-86.0,-1512.0,385.0,1493.0,18.0,726.0
116,-164.0,-1479.0,425.0,1597.0,8.0,645.0
117,141.0,-871.0,-68.0,1897.0,5.0,268.0
118,-111.0,-896.0,-70.0,-2681.0,-577.0,101.0
119,-27.0,-940.0,-61.0,-2772.0,-668.0,75.0
120,63.0,-993.0,-38.0,-2867.0,-682.0,52.0
121,92.0,-1069.0,-1.0,-2953.0,-587.0,41.0
122,104.0,-1145.0,37.0,-3011.0,-450.0,23.0
123,81.0,-1201.0,71.0,-3054.0,-300.0,-1.0
124,66.0,-1277.0,103.0,-3107.0,-187.0,-27.0
125,43.0,-1360.0,135.0,-3145.0,-120.0,-71.0
126,16.0,-1421.0,177.0,-3152.0,-103.0,-135.0
127,22.0,-1492.0,227.0,-3146.0,-132.0,-188.0
128,0.0,-1524.0,281.0,-3111.0,-161.0,-215.0
129,72.0,-1564.0,311.0,-3074.0,-191.0,-214.0
130,52.0,-1668.0,327.0,-3022.0,-115.0,-222.0
131,-12.0,-1708.0,352.0,-2884.0,-15.0,-244.0
132,-93.0,-1699.0,385.0,-2713.0,64.0,-237.0
133,-154.0,-1596.0,458.0,-2424.0,117.0,-184.0
134,-395.0,-1314.0,790.0,1304.0,-302.0,201.0
135,-512.0,-813.0,806.0,1918.0,-439.0,497.0
136,-544.0,-964.0,642.0,1583.0,-496.0,581.0
137,-342.0,-1062.0,277.0,1437.0,-559.0,572.0
138,-589.0,-1393.0,-306.0,1344.0,-257.0,471.0
139,-586.0,-1906.0,-1177.0,1232.0,-326.0,133.0
140,214.0,-1959.0,-1888.0,1456.0,-971.0,-262.0
141,-15.0,-1667.0,-1181.0,3094.0,-865.0,-132.0
142,-360.0,-362.0,308.0,4025.0,-971.0,53.0
143,-50.0,-678.0,714.0,2487.0,-1290.0,-157.0
144,470.0,-715.0,693.0,1892.0,-1077.0,-350.0
145,296.0,-771.0,375.0,1612.0,-323.0,-219.0
146,-71.0,-854.0,77.0,1312.0,129.0,-119.0
147,-50.0,-1072.0,-79.0,1131.0,51.0,-140.0
148,-107.0,-940.0,75.0,1189.0,-76.0,-148.0
149,1.0,-974.0,189.0,251.0,28.0,-190.0
150,-7.0,-974.0,205.0,82.0,71.0,-87.0
151,20.0,-986.0,189.0,142.0,99.0,-114.0
152,-15.0,-969.0,203.0,145.0,110.0,-104.0
153,20.0,-946.0,231.0,134.0,86.0,-96.0
154,14.0,-958.0,227.0,96.0,93.0,-80.0
155,2.0,-985.0,200.0,83.0,108.0,-69.0
156,15.0,-984.0,197.0,102.0,107.0,-67.0
157,18.0,-965.0,224.0,121.0,106.0,-60.0
158,6.0,-977.0,201.0,115.0,131.0,-55.0
159,5.0,-977.0,191.0,117.0,144.0,-53.0
160,37.0,-961.0,235.0,121.0,122.0,-41.0
161,24.0,-997.0,197.0,99.0,158.0,-32.0
162,53.0,-1003.0,251.0,259.0,245.0,26.0
163,19.0,-1031.0,233.0,275.0,302.0,48.0
164,-23.0,-1014.0,248.0,313.0,335.0,53.0
165,-42.0,-1006.0,255.0,323.0,322.0,47.0
166,-70.0,-992.0,275.0,325.0,295.0,42.0
167,-85.0,-1008.0,272.0,319.0,253.0,35.0
168,-68.0,-1042.0,280.0,318.0,198.0,22.0
169,-31.0,-1068.0,285.0,337.0,145.0,28.0
170,-35.0,-1090.0,264.0,363.0,136.0,47.0
171,-13.0,-1082.0,290.0,429.0,116.0,64.0
172,54.0,-1100.0,295.0,484.0,91.0,101.0
173,303.0,-1919.0,241.0,2288.0,13.0,-204.0
174,182.0,-1295.0,-702.0,-3103.0,296.0,353.0
175,-161.0,-265.0,-381.0,-1389.0,878.0,340.0
176,-261.0,143.0,-404.0,-1730.0,687.0,288.0
177,-259.0,-248.0,-429.0,-2751.0,316.0,300.0
178,-83.0,-500.0,-481.0,-3068.0,-27.0,394.0
179,-5.0,-419.0,-442.0,-2973.0,-135.0,414.0
180,-3.0,-365.0,-424.0,-3104.0,-151.0,314.0
181,-79.0,-363.0,-398.0,-3358.0,-132.0,233.0
182,-97.0,-472.0,-383.0,-3686.0,-214.0,236.0
183,-30.0,-737.0,-325.0,-3998.0,-336.0,244.0
184,63.0,-987.0,-224.0,-4080.0,-400.0,227.0
185,488.0,-1436.0,397.0,-2982.0,-276.0,-579.0
186,-158.0,-1368.0,1099.0,-1595.0,1745.0,-767.0
187,-693.0,-1142.0,1234.0,-1298.0,1938.0,-719.0
188,-1031.0,-1168.0,1408.0,-1201.0,1787.0,-595.0
189,-871.0,-1393.0,1501.0,-1019.0,1369.0,-430.0
190,-696.0,-1259.0,1538.0,-482.0,1119.0,-299.0
191,-602.0,-1147.0,1451.0,-40.0,975.0,-216.0
192,-604.0,-1048.0,1276.0,292.0,853.0,-122.0
193,-696.0,-1346.0,1130.0,496.0,666.0,-15.0
194,-834.0,-1616.0,961.0,1068.0,320.0,303.0
195,-862.0,-1108.0,761.0,2170.0,-97.0,652.0
196,-1025.0,-754.0,711.0,2351.0,-410.0,512.0
197,16.0,-949.0,26.0,1347.0,38.0,-53.0
198,69.0,-959.0,184.0,118.0,29.0,-260.0
199,54.0,-977.0,174.0,89.0,51.0,-225.0
200,64.0,-1008.0,134.0,70.0,61.0,-194.0
201,84.0,-1004.0,141.0,94.0,51.0,-156.0
202,96.0,-980.0,158.0,121.0,46.0,-103.0
203,70.0,-998.0,142.0,110.0,80.0,-62.0
204,16.0,-959.0,200.0,141.0,93.0,-36.0
205,34.0,-972.0,182.0,111.0,79.0,-43.0
206,18.0,-979.0,184.0,85.0,88.0,-52.0
207,24.0,-974.0,185.0,69.0,79.0,-61.0
208,42.0,-982.0,171.0,47.0,72.0,-70.0
209,60.0,-986.0,191.0,162.0,147.0,69.0
210,45.0,-981.0,201.0,181.0,169.0,82.0
211,52.0,-977.0,203.0,198.0,174.0,91.0
212,29.0,-1016.0,157.0,197.0,199.0,103.0
213,-8.0,-1005.0,178.0,236.0,195.0,108.0
214,57.0,-985.0,206.0,262.0,116.0,118.0
215,-26.0,-988.0,215.0,252.0,165.0,132.0
216,-7.0,-1001.0,210.0,255.0,139.0,108.0
217,60.0,-991.0,220.0,280.0,112.0,92.0
218,92.0,-1020.0,224.0,293.0,154.0,104.0
219,70.0,-1022.0,225.0,321.0,238.0,118.0
220,-41.0,-1133.0,306.0,969.0,-79.0,340.0
221,257.0,-1725.0,367.0,1817.0,-364.0,359.0
222,325.0,-1959.0,251.0,2534.0,9.0,-94.0
223,446.0,-1959.0,95.0,2765.0,73.0,-181.0
224,536.0,-1959.0,-19.0,2982.0,241.0,-280.0
225,549.0,-1959.0,-5.0,3142.0,474.0,-422.0
226,546.0,-1959.0,-81.0,3382.0,758.0,-543.0
227,402.0,-1902.0,-403.0,3771.0,1295.0,-562.0
228,212.0,-1595.0,-390.0,4049.0,1635.0,-476.0
229,-10.0,-1401.0,-30.0,4025.0,1590.0,-446.0
230,18.0,-1286.0,169.0,3946.0,1279.0,-424.0
231,-68.0,-1020.0,205.0,3983.0,1275.0,-392.0
232,-22.0,-739.0,52.0,3951.0,1265.0,-298.0
233,14.0,-647.0,-491.0,-3525.0,376.0,-135.0
234,-141.0,-550.0,-398.0,-3453.0,488.0,-159.0
235,-272.0,-596.0,-344.0,-3640.0,455.0,-195.0
236,-251.0,-844.0,-284.0,-3900.0,236.0,-239.0
237,-209.0,-1021.0,-212.0,-3948.0,30.0,-289.0
238,-206.0,-1044.0,-130.0,-3871.0,-123.0,-367.0
239,-278.0,-1084.0,-81.0,-3858.0,-265.0,-428.0
240,-310.0,-1127.0,-42.0,-3893.0,-456.0,-441.0
241,-169.0,-1196.0,-14.0,-3968.0,-709.0,-406.0
242,-384.0,-1829.0,652.0,-2670.0,-640.0,-520.0
243,-10.0,-1812.0,660.0,-2528.0,-876.0,-438.0
244,316.0,-1476.0,782.0,-2279.0,-925.0,-434.0
245,453.0,-1404.0,860.0,-2298.0,-736.0,-529.0
246,611.0,-1638.0,934.0,-2328.0,-451.0,-624.0
247,617.0,-1546.0,1052.0,-1936.0,33.0,-657.0
248,478.0,-1292.0,1167.0,-1527.0,598.0,-690.0
249,128.0,-1218.0,1236.0,-1348.0,1195.0,-756.0
250,-409.0,-1304.0,1322.0,-1189.0,1693.0,-748.0
251,-731.0,-1307.0,1387.0,-849.0,1796.0,-601.0
252,-747.0,-1132.0,1352.0,-422.0,1628.0,-387.0
253,-156.0,-663.0,521.0,2969.0,-845.0,59.0
254,7.0,-998.0,148.0,158.0,101.0,-83.0
255,24.0,-960.0,179.0,175.0,85.0,-85.0
256,20.0,-982.0,165.0,142.0,102.0,-74.0
257,31.0,-1036.0,104.0,126.0,113.0,-65.0
258,-13.0,-999.0,154.0,191.0,117.0,-46.0
259,14.0,-965.0,168.0,209.0,81.0,-39.0
260,9.0,-984.0,164.0,180.0,80.0,-28.0
261,19.0,-952.0,195.0,182.0,53.0,-5.0
262,14.0,-969.0,189.0,57.0,76.0,-5.0
263,8.0,-999.0,189.0,139.0,246.0,-24.0
264,96.0,-966.0,200.0,241.0,169.0,93.0
265,37.0,-1018.0,176.0,227.0,239.0,148.0
266,-15.0,-1037.0,183.0,250.0,280.0,160.0
267,-12.0,-1053.0,192.0,294.0,275.0,145.0
268,-42.0,-1068.0,196.0,334.0,307.0,124.0
269,-14.0,-1042.0,212.0,388.0,280.0,108.0
270,-11.0,-1059.0,213.0,411.0,269.0,121.0
271,-34.0,-1070.0,197.0,450.0,259.0,145.0
272,-18.0,-1049.0,230.0,502.0,203.0,169.0
273,-44.0,-1052.0,253.0,519.0,184.0,202.0
274,169.0,-1911.0,-6.0,2585.0,294.0,-153.0
275,196.0,-1869.0,-47.0,2766.0,386.0,-197.0
276,152.0,-1783.0,-37.0,2954.0,543.0,-236.0
277,96.0,-1768.0,30.0,3104.0,707.0,-245.0
278,1.0,-1586.0,-52.0,3353.0,916.0,-224.0
279,-276.0,-1183.0,-51.0,3572.0,1161.0,-165.0
280,-425.0,-1012.0,110.0,3436.0,1000.0,-27.0
281,-332.0,-1021.0,150.0,3217.0,610.0,101.0
282,-216.0,-861.0,83.0,3199.0,400.0,153.0
283,-32.0,-673.0,-243.0,-3100.0,-322.0,437.0
284,118.0,-1904.0,-1229.0,1381.0,-1467.0,20.0
285,526.0,-1959.0,-1958.0,1339.0,-1307.0,-68.0
286,-133.0,-1602.0,-1089.0,3415.0,-895.0,262.0
287,-550.0,-242.0,734.0,4104.0,-1127.0,240.0
288,-98.0,-583.0,940.0,2249.0,-1359.0,-196.0
289,509.0,-762.0,446.0,1607.0,-1097.0,-351.0
290,115.0,-904.0,82.0,1287.0,-279.0,-203.0
291,-18.0,-997.0,-21.0,1165.0,-209.0,-137.0
292,104.0,-981.0,-30.0,1233.0,-266.0,-167.0
293,79.0,-932.0,58.0,1307.0,-58.0,-191.0
294,15.0,-950.0,36.0,1281.0,169.0,-204.0
295,13.0,-1019.0,-23.0,1227.0,282.0,-217.0
296,-32.0,-948.0,107.0,1242.0,273.0,-202.0
297,-16.0,-960.0,199.0,205.0,87.0,-87.0
298,-7.0,-964.0,200.0,181.0,77.0,-85.0
299,-8.0,-956.0,214.0,162.0,71.0,-81.0
300,1.0,-962.0,203.0,134.0,76.0,-86.0
301,-5.0,-962.0,215.0,113.0,95.0,-96.0
302,10.0,-967.0,201.0,89.0,105.0,-113.0
303,4.0,-971.0,199.0,74.0,136.0,-130.0
304,-15.0,-975.0,195.0,72.0,174.0,-154.0
305,-14.0,-974.0,202.0,79.0,196.0,-184.0
306,-10.0,-971.0,206.0,82.0,205.0,-202.0
307,16.0,-1002.0,170.0,69.0,205.0,-199.0
308,34.0,-983.0,232.0,272.0,289.0,7.0
309,48.0,-975.0,221.0,268.0,292.0,48.0
310,11.0,-1004.0,210.0,263.0,314.0,100.0
311,48.0,-1014.0,216.0,277.0,270.0,142.0
312,44.0,-994.0,222.0,311.0,278.0,187.0
313,-70.0,-1003.0,255.0,326.0,339.0,201.0
314,-71.0,-1049.0,250.0,322.0,311.0,158.0
315,-32.0,-1089.0,246.0,345.0,278.0,122.0
316,-16.0,-1096.0,248.0,380.0,279.0,115.0
317,44.0,-1826.0,416.0,1801.0,-243.0,257.0
318,-15.0,-1101.0,277.0,3893.0,876.0,-166.0
319,123.0,731.0,-864.0,939.0,980.0,33.0
320,-383.0,531.0,-838.0,-590.0,1353.0,-17.0
321,-379.0,-691.0,-399.0,-2602.0,627.0,120.0
322,-207.0,-823.0,-640.0,-2115.0,290.0,225.0
323,-202.0,-23.0,-434.0,-1242.0,223.0,253.0
324,-212.0,122.0,-465.0,-1868.0,88.0,227.0
325,-51.0,-155.0,-530.0,-2702.0,-156.0,195.0
326,40.0,-325.0,-567.0,-3053.0,-175.0,175.0
327,127.0,-412.0,-547.0,-3221.0,-149.0,149.0
328,110.0,-470.0,-475.0,-3350.0,-10.0,88.0
329,26.0,-437.0,-398.0,-3445.0,169.0,32.0
330,-10.0,-497.0,-350.0,-3700.0,252.0,15.0
331,-108.0,-815.0,-285.0,-4023.0,326.0,25.0
332,-163.0,-1033.0,-191.0,-4052.0,290.0,18.0
333,-225.0,-1101.0,-85.0,-3911.0,203.0,-3.0
334,-252.0,-1125.0,-4.0,-3798.0,64.0,-39.0
335,-476.0,-1713.0,568.0,-2881.0,-204.0,-735.0
336,-290.0,-1710.0,579.0,-2825.0,-478.0,-615.0
337,-55.0,-1636.0,597.0,-2728.0,-608.0,-515.0
338,189.0,-1519.0,643.0,-2641.0,-578.0,-445.0
339,408.0,-1486.0,720.0,-2594.0,-394.0,-439.0
340,713.0,-1521.0,797.0,-2482.0,-178.0,-524.0
341,705.0,-1382.0,924.0,-2189.0,331.0,-716.0
342,314.0,-1026.0,1111.0,-1911.0,938.0,-907.0
343,-326.0,-981.0,1232.0,-2008.0,1421.0,-1021.0
344,-752.0,-1454.0,1272.0,-2223.0,1484.0,-1004.0
345,-846.0,-1601.0,1444.0,-1804.0,1185.0,-789.0
346,-562.0,-1218.0,1406.0,-523.0,755.0,-332.0
347,131.0,-974.0,-9.0,1104.0,178.0,-22.0
348,35.0,-971.0,25.0,1097.0,240.0,31.0
349,24.0,-991.0,-7.0,1128.0,226.0,17.0
350,6.0,-991.0,29.0,1193.0,215.0,-13.0
351,109.0,-947.0,85.0,1230.0,180.0,-29.0
352,34.0,-947.0,79.0,1170.0,303.0,-27.0
353,-1.0,-991.0,120.0,1073.0,334.0,-35.0
354,-40.0,-957.0,141.0,995.0,294.0,-27.0
355,-31.0,-962.0,129.0,878.0,201.0,-27.0
356,-8.0,-954.0,144.0,782.0,100.0,-8.0
357,-30.0,-942.0,168.0,703.0,26.0,-3.0
358,12.0,-946.0,161.0,624.0,-36.0,-30.0
359,3.0,-967.0,154.0,551.0,-23.0,-49.0
360,30.0,-990.0,122.0,498.0,-8.0,-65.0
361,41.0,-969.0,160.0,477.0,3.0,-58.0
362,75.0,-958.0,218.0,243.0,134.0,-94.0
363,45.0,-991.0,213.0,185.0,193.0,20.0
364,65.0,-1010.0,213.0,213.0,213.0,92.0
365,47.0,-995.0,225.0,249.0,225.0,117.0
366,50.0,-986.0,237.0,269.0,230.0,135.0
367,48.0,-997.0,240.0,269.0,246.0,151.0
368,34.0,-974.0,257.0,287.0,260.0,171.0
369,12.0,-1013.0,253.0,273.0,289.0,177.0
370,30.0,-1037.0,221.0,275.0,293.0,178.0
371,33.0,-1027.0,237.0,302.0,295.0,192.0
372,-126.0,-1121.0,374.0,1061.0,99.0,264.0
373,274.0,-1674.0,447.0,1670.0,-142.0,177.0
374,-168.0,-905.0,422.0,3596.0,770.0,13.0
375,-17.0,-731.0,252.0,3509.0,719.0,93.0
376,32.0,-672.0,39.0,3347.0,812.0,176.0
377,-9.0,-534.0,-74.0,3199.0,884.0,192.0
378,-24.0,-135.0,-43.0,3041.0,805.0,220.0
379,-29.0,356.0,21.0,2603.0,745.0,286.0
380,13.0,633.0,-19.0,1649.0,708.0,377.0
381,406.0,769.0,-661.0,512.0,659.0,386.0
382,-152.0,720.0,-681.0,-773.0,1375.0,255.0
383,-113.0,-445.0,-414.0,-2896.0,748.0,226.0
384,62.0,-1187.0,-567.0,-3018.0,433.0,305.0
385,-216.0,-1090.0,86.0,-3549.0,80.0,-322.0
386,-245.0,-1174.0,150.0,-3544.0,-96.0,-364.0
387,-181.0,-1275.0,217.0,-3533.0,-316.0,-410.0
388,-47.0,-1379.0,301.0,-3494.0,-512.0,-470.0
389,93.0,-1465.0,366.0,-3423.0,-632.0,-542.0
390,139.0,-1489.0,423.0,-3305.0,-640.0,-615.0
391,189.0,-1509.0,445.0,-3209.0,-632.0,-681.0
392,194.0,-1493.0,446.0,-3119.0,-588.0,-733.0
393,194.0,-1506.0,430.0,-3078.0,-545.0,-788.0
394,-150.0,-1685.0,505.0,-2696.0,-427.0,-721.0
395,-76.0,-1654.0,508.0,-2565.0,-459.0,-629.0
396,-17.0,-1609.0,518.0,-2452.0,-405.0,-569.0
397,26.0,-1603.0,538.0,-2383.0,-336.0,-569.0
398,110.0,-1599.0,540.0,-2297.0,-276.0,-601.0
399,117.0,-1456.0,560.0,-2151.0,-129.0,-639.0
400,99.0,-1295.0,589.0,-2129.0,31.0,-683.0
401,-25.0,-1349.0,601.0,-2276.0,276.0,-704.0
402,-192.0,-1492.0,656.0,-2308.0,503.0,-657.0
403,197.0,-547.0,480.0,1647.0,-1644.0,-7.0
404,55.0,-983.0,157.0,114.0,55.0,-296.0
405,69.0,-981.0,170.0,104.0,67.0,-281.0
406,48.0,-976.0,179.0,88.0,89.0,-249.0
407,67.0,-1000.0,137.0,60.0,99.0,-231.0
408,69.0,-1001.0,145.0,77.0,106.0,-205.0
409,61.0,-968.0,177.0,107.0,105.0,-174.0
410,69.0,-980.0,168.0,91.0,111.0,-161.0
411,53.0,-986.0,161.0,88.0,138.0,-149.0
412,65.0,-987.0,193.0,211.0,139.0,-8.0
413,56.0,-989.0,183.0,220.0,166.0,-4.0
414,76.0,-971.0,203.0,238.0,158.0,10.0
415,59.0,-955.0,218.0,235.0,170.0,33.0
416,48.0,-966.0,203.0,212.0,189.0,41.0
417,29.0,-955.0,219.0,209.0,195.0,46.0
418,37.0,-946.0,226.0,190.0,176.0,51.0
419,16.0,-963.0,213.0,161.0,184.0,52.0
420,30.0,-987.0,187.0,145.0,169.0,46.0
421,56.0,-955.0,227.0,159.0,135.0,55.0
422,21.0,-958.0,228.0,143.0,155.0,59.0
423,43.0,-994.0,215.0,125.0,155.0,26.0
424,-11.0,-1165.0,337.0,1024.0,13.0,222.0
425,23.0,-1143.0,353.0,1064.0,3.0,259.0