sequence,AccelerometerX,AccelerometerY,AccelerometerZ,GyroscopeX,GyroscopeY,GyroscopeZ
65,144.0,-869.0,347.0,189.0,286.0,-129.0
66,124.0,-868.0,358.0,161.0,299.0,-126.0
67,102.0,-858.0,364.0,135.0,302.0,-116.0
68,100.0,-848.0,362.0,107.0,294.0,-100.0
69,108.0,-827.0,364.0,78.0,284.0,-84.0
70,110.0,-817.0,363.0,40.0,284.0,-74.0
71,67.0,-938.0,369.0,-130.0,255.0,-104.0
72,67.0,-942.0,367.0,-120.0,238.0,-105.0
73,70.0,-934.0,360.0,-115.0,225.0,-112.0
74,72.0,-923.0,360.0,-120.0,216.0,-143.0
75,92.0,-931.0,359.0,-141.0,211.0,-211.0
76,47.0,-945.0,374.0,-153.0,232.0,-240.0
77,50.0,-941.0,367.0,-146.0,210.0,-239.0
78,40.0,-933.0,372.0,-144.0,198.0,-249.0
79,47.0,-939.0,379.0,-145.0,173.0,-253.0
80,74.0,-1073.0,362.0,-118.0,62.0,-298.0
81,75.0,-989.0,332.0,-10.0,15.0,-322.0
82,112.0,-965.0,346.0,31.0,-27.0,-301.0
83,107.0,-969.0,372.0,35.0,-37.0,-271.0
84,118.0,-961.0,355.0,61.0,-70.0,-232.0
85,128.0,-936.0,341.0,82.0,-92.0,-203.0
86,137.0,-932.0,349.0,83.0,-102.0,-201.0
87,138.0,-930.0,349.0,86.0,-110.0,-192.0
88,166.0,-899.0,344.0,92.0,-128.0,-187.0
89,217.0,-844.0,350.0,62.0,-115.0,-9.0
90,180.0,-933.0,346.0,40.0,-13.0,46.0
91,176.0,-932.0,348.0,41.0,-7.0,33.0
92,185.0,-939.0,345.0,39.0,-2.0,20.0
93,194.0,-930.0,346.0,40.0,4.0,17.0
94,197.0,-928.0,348.0,37.0,16.0,7.0
95,200.0,-927.0,342.0,33.0,29.0,-2.0
96,193.0,-931.0,350.0,27.0,44.0,-7.0
97,192.0,-936.0,346.0,26.0,54.0,-13.0
98,196.0,-947.0,344.0,29.0,63.0,-21.0
99,190.0,-948.0,345.0,36.0,75.0,-35.0
100,185.0,-951.0,348.0,44.0,82.0,-45.0
101,183.0,-881.0,362.0,67.0,20.0,3.0
102,198.0,-882.0,358.0,63.0,21.0,10.0
103,202.0,-885.0,353.0,59.0,28.0,15.0
104,200.0,-888.0,356.0,52.0,38.0,18.0
105,193.0,-887.0,361.0,24.0,70.0,24.0
106,183.0,-888.0,367.0,12.0,81.0,26.0
107,164.0,-890.0,371.0,-2.0,93.0,26.0
108,151.0,-897.0,374.0,-12.0,94.0,28.0
109,160.0,-903.0,369.0,-18.0,88.0,28.0
110,142.0,-915.0,373.0,-23.0,90.0,24.0
111,162.0,-917.0,368.0,-21.0,77.0,26.0
112,158.0,-911.0,365.0,-17.0,58.0,23.0
113,161.0,-911.0,365.0,-18.0,58.0,25.0
114,158.0,-914.0,364.0,-18.0,60.0,26.0
115,155.0,-917.0,365.0,-17.0,62.0,27.0
116,159.0,-910.0,365.0,-16.0,60.0,29.0
117,158.0,-915.0,363.0,-19.0,63.0,30.0
118,158.0,-917.0,363.0,-19.0,67.0,32.0
119,168.0,-912.0,361.0,-19.0,67.0,34.0
120,164.0,-916.0,360.0,-23.0,75.0,27.0
121,159.0,-920.0,363.0,-26.0,80.0,27.0
122,149.0,-919.0,366.0,-24.0,83.0,32.0
123,150.0,-910.0,366.0,-24.0,79.0,35.0
124,133.0,-918.0,369.0,-29.0,84.0,33.0
125,132.0,-920.0,369.0,-28.0,75.0,38.0
126,138.0,-921.0,365.0,-24.0,66.0,42.0
127,142.0,-943.0,365.0,-5.0,85.0,39.0
128,171.0,-939.0,354.0,17.0,183.0,-16.0
129,169.0,-944.0,353.0,20.0,200.0,-21.0
130,166.0,-953.0,355.0,25.0,215.0,-24.0
131,166.0,-960.0,357.0,35.0,226.0,-26.0
132,159.0,-965.0,360.0,46.0,237.0,-30.0
133,151.0,-977.0,362.0,58.0,248.0,-34.0
134,149.0,-976.0,363.0,77.0,251.0,-35.0
135,143.0,-983.0,368.0,96.0,260.0,-35.0
136,147.0,-988.0,368.0,121.0,272.0,-37.0
137,171.0,-976.0,356.0,156.0,299.0,-54.0
138,188.0,-929.0,360.0,185.0,345.0,-87.0
139,68.0,-936.0,166.0,-303.0,964.0,20.0
140,-45.0,-896.0,18.0,-624.0,1122.0,-249.0
141,-30.0,-931.0,13.0,-713.0,1161.0,-236.0
142,-25.0,-950.0,20.0,-770.0,1210.0,-229.0
143,-29.0,-947.0,39.0,-820.0,1261.0,-234.0
144,-16.0,-989.0,45.0,-885.0,1307.0,-230.0
145,-1.0,-1016.0,58.0,-917.0,1363.0,-194.0
146,48.0,-1018.0,65.0,-923.0,1420.0,-159.0
147,119.0,-1003.0,65.0,-933.0,1495.0,-165.0
148,145.0,-1018.0,65.0,-970.0,1620.0,-214.0
149,128.0,-1047.0,74.0,-999.0,1760.0,-277.0
150,117.0,-1068.0,94.0,-1000.0,1875.0,-335.0
151,-285.0,-944.0,373.0,-1220.0,2202.0,-311.0
152,93.0,-998.0,413.0,-59.0,-99.0,-125.0
153,102.0,-968.0,393.0,37.0,-188.0,-278.0
154,164.0,-972.0,354.0,116.0,-286.0,-448.0
155,143.0,-814.0,316.0,189.0,-326.0,-625.0
156,91.0,-872.0,250.0,128.0,-399.0,-662.0
157,113.0,-892.0,149.0,111.0,-568.0,-627.0
158,187.0,-929.0,12.0,118.0,-731.0,-591.0
159,352.0,-1054.0,-162.0,145.0,-811.0,-512.0
160,465.0,-1136.0,-302.0,258.0,-686.0,-395.0
161,420.0,-1179.0,-355.0,417.0,-385.0,-279.0
162,310.0,-1241.0,-313.0,600.0,-63.0,-178.0
163,171.0,-942.0,185.0,509.0,23.0,-109.0
164,196.0,-934.0,190.0,472.0,43.0,-126.0
165,133.0,-928.0,189.0,429.0,96.0,-131.0
166,106.0,-906.0,222.0,385.0,105.0,-168.0
167,172.0,-892.0,253.0,327.0,69.0,-220.0
168,194.0,-914.0,252.0,243.0,89.0,-244.0
169,177.0,-958.0,229.0,165.0,125.0,-247.0
170,185.0,-999.0,179.0,123.0,108.0,-247.0
171,233.0,-985.0,136.0,127.0,82.0,-238.0
172,245.0,-970.0,137.0,157.0,89.0,-194.0
173,253.0,-987.0,126.0,186.0,101.0,-134.0
174,144.0,-943.0,227.0,140.0,114.0,87.0
175,133.0,-950.0,225.0,119.0,112.0,72.0
176,135.0,-953.0,226.0,101.0,101.0,54.0
177,148.0,-958.0,223.0,81.0,91.0,39.0
178,133.0,-972.0,223.0,59.0,96.0,22.0
179,140.0,-955.0,233.0,41.0,95.0,-8.0
180,124.0,-949.0,243.0,18.0,100.0,-37.0
181,139.0,-956.0,237.0,-10.0,102.0,-73.0
182,159.0,-967.0,217.0,-30.0,109.0,-103.0
183,165.0,-958.0,212.0,-33.0,120.0,-119.0
184,165.0,-955.0,226.0,152.0,134.0,105.0
185,164.0,-951.0,230.0,158.0,135.0,119.0
186,155.0,-952.0,228.0,158.0,138.0,127.0
187,141.0,-954.0,238.0,165.0,137.0,129.0
188,144.0,-939.0,235.0,173.0,136.0,124.0
189,147.0,-942.0,236.0,167.0,136.0,126.0
190,137.0,-930.0,244.0,163.0,128.0,138.0
191,129.0,-932.0,253.0,148.0,129.0,140.0
192,126.0,-940.0,256.0,133.0,124.0,139.0
193,128.0,-966.0,238.0,118.0,119.0,132.0
194,133.0,-984.0,235.0,122.0,120.0,124.0
195,140.0,-996.0,263.0,196.0,229.0,131.0
196,111.0,-1003.0,275.0,220.0,245.0,139.0
197,119.0,-1021.0,257.0,238.0,250.0,126.0
198,134.0,-998.0,275.0,286.0,245.0,130.0
199,118.0,-1039.0,274.0,308.0,260.0,141.0
200,120.0,-1021.0,262.0,346.0,271.0,144.0
201,109.0,-981.0,286.0,384.0,276.0,157.0
202,93.0,-947.0,308.0,399.0,283.0,170.0
203,99.0,-940.0,313.0,388.0,282.0,180.0
204,113.0,-1120.0,386.0,1024.0,261.0,-105.0
205,41.0,-1201.0,400.0,952.0,393.0,-188.0
206,65.0,-1065.0,417.0,1055.0,396.0,-137.0
207,106.0,-1155.0,431.0,1038.0,413.0,-153.0
208,139.0,-1269.0,394.0,1101.0,441.0,-97.0
209,240.0,-1125.0,359.0,1269.0,455.0,-47.0
210,297.0,-1037.0,376.0,1334.0,483.0,-26.0
211,341.0,-1029.0,362.0,1313.0,544.0,-64.0
212,424.0,-1023.0,350.0,1311.0,608.0,-70.0
213,476.0,-966.0,336.0,1324.0,729.0,-107.0
214,-199.0,-768.0,154.0,283.0,1648.0,-484.0
215,143.0,-1418.0,506.0,-2221.0,-643.0,350.0
216,378.0,-1351.0,500.0,-2081.0,-587.0,339.0
217,532.0,-1279.0,534.0,-1951.0,-388.0,264.0
218,478.0,-1263.0,612.0,-1856.0,-52.0,122.0
219,284.0,-1262.0,715.0,-1743.0,294.0,3.0
220,80.0,-1267.0,811.0,-1587.0,562.0,-41.0
221,-12.0,-1259.0,854.0,-1384.0,715.0,-14.0
222,-4.0,-1195.0,823.0,-1138.0,791.0,45.0
223,64.0,-884.0,-6.0,113.0,68.0,-84.0
224,19.0,-876.0,13.0,110.0,95.0,-103.0
225,-2.0,-957.0,10.0,97.0,81.0,-98.0
226,-12.0,-976.0,11.0,143.0,47.0,-91.0
227,29.0,-977.0,-10.0,196.0,-8.0,-90.0
228,81.0,-981.0,-51.0,230.0,-46.0,-99.0
229,97.0,-962.0,-80.0,257.0,-47.0,-126.0
230,106.0,-968.0,-111.0,267.0,-38.0,-151.0
231,32.0,-961.0,-112.0,280.0,1.0,-168.0
232,-42.0,-968.0,-92.0,300.0,18.0,-182.0
233,-77.0,-972.0,-75.0,332.0,0.0,-167.0
234,-57.0,-933.0,-99.0,404.0,-35.0,-135.0
235,145.0,-1016.0,-32.0,918.0,52.0,-288.0
236,62.0,-1020.0,-1.0,877.0,250.0,-263.0
237,60.0,-1040.0,-12.0,889.0,235.0,-290.0
238,84.0,-1074.0,-106.0,909.0,236.0,-323.0
239,71.0,-1032.0,-36.0,989.0,232.0,-338.0
240,80.0,-980.0,84.0,1040.0,197.0,-344.0
241,62.0,-963.0,117.0,1019.0,183.0,-349.0
242,110.0,-982.0,89.0,968.0,161.0,-349.0
243,121.0,-990.0,72.0,934.0,145.0,-317.0
244,119.0,-999.0,42.0,915.0,135.0,-272.0
245,100.0,-971.0,106.0,924.0,117.0,-240.0
246,90.0,-953.0,137.0,898.0,88.0,-217.0
247,138.0,-921.0,226.0,217.0,51.0,-171.0
248,149.0,-918.0,274.0,258.0,144.0,683.0
249,74.0,-924.0,291.0,211.0,156.0,623.0
250,21.0,-958.0,273.0,151.0,155.0,519.0
251,19.0,-984.0,254.0,108.0,124.0,394.0
252,41.0,-1007.0,225.0,88.0,98.0,276.0
253,41.0,-985.0,246.0,96.0,78.0,177.0
254,70.0,-965.0,266.0,97.0,47.0,96.0
255,102.0,-984.0,232.0,77.0,35.0,37.0
256,128.0,-962.0,248.0,91.0,20.0,7.0
257,131.0,-967.0,249.0,91.0,21.0,-7.0
258,149.0,-979.0,229.0,89.0,29.0,-23.0
259,150.0,-965.0,246.0,180.0,167.0,-230.0
260,157.0,-1061.0,297.0,341.0,351.0,-119.0
261,165.0,-1046.0,304.0,378.0,352.0,-155.0
262,178.0,-1014.0,327.0,411.0,336.0,-182.0
263,126.0,-998.0,345.0,433.0,341.0,-207.0
264,105.0,-986.0,354.0,449.0,304.0,-245.0
265,142.0,-991.0,354.0,469.0,252.0,-276.0
266,159.0,-996.0,358.0,501.0,230.0,-302.0
267,150.0,-1031.0,343.0,539.0,215.0,-328.0
268,183.0,-1027.0,358.0,600.0,173.0,-348.0
269,227.0,-976.0,350.0,646.0,144.0,-348.0
270,215.0,-993.0,355.0,653.0,167.0,-336.0
271,261.0,-924.0,430.0,939.0,-136.0,-367.0
272,518.0,-1362.0,656.0,1449.0,519.0,-645.0
273,476.0,-1383.0,557.0,1637.0,612.0,-689.0
274,464.0,-1237.0,373.0,1820.0,694.0,-687.0
275,438.0,-1263.0,338.0,1846.0,742.0,-741.0
276,320.0,-1310.0,435.0,1891.0,819.0,-791.0
277,280.0,-1314.0,498.0,2010.0,766.0,-779.0
278,332.0,-1215.0,527.0,2161.0,656.0,-742.0
279,293.0,-1172.0,606.0,2238.0,627.0,-742.0
280,291.0,-1147.0,670.0,2305.0,556.0,-760.0
281,351.0,-1083.0,656.0,2385.0,485.0,-777.0
282,361.0,-925.0,571.0,2398.0,474.0,-749.0
283,249.0,-793.0,520.0,2310.0,481.0,-715.0
284,200.0,-636.0,458.0,2166.0,370.0,-724.0
285,213.0,-485.0,358.0,1945.0,232.0,-751.0
286,302.0,-377.0,225.0,1652.0,143.0,-717.0
287,175.0,-234.0,-95.0,883.0,391.0,-530.0
288,105.0,-1060.0,160.0,-3252.0,-664.0,1402.0
289,231.0,-1185.0,185.0,-3329.0,-712.0,1419.0
290,322.0,-1277.0,237.0,-3371.0,-691.0,1408.0
291,398.0,-1411.0,294.0,-3408.0,-626.0,1386.0
292,495.0,-1498.0,343.0,-3382.0,-552.0,1370.0
293,568.0,-1543.0,381.0,-3325.0,-439.0,1335.0
294,578.0,-1588.0,413.0,-3268.0,-285.0,1262.0
295,565.0,-1598.0,454.0,-3197.0,-140.0,1162.0
296,566.0,-1611.0,506.0,-3127.0,-31.0,1065.0
297,607.0,-1603.0,554.0,-3052.0,61.0,979.0
298,637.0,-1628.0,574.0,-2988.0,190.0,905.0
299,609.0,-1631.0,601.0,-2906.0,346.0,842.0
300,492.0,-1619.0,642.0,-2805.0,506.0,784.0
301,307.0,-984.0,270.0,-1034.0,335.0,-48.0
302,226.0,-1004.0,231.0,-1001.0,437.0,-68.0
303,142.0,-1017.0,200.0,-944.0,490.0,-95.0
304,93.0,-995.0,184.0,-864.0,485.0,-100.0
305,78.0,-975.0,179.0,-796.0,444.0,-112.0
306,71.0,-944.0,170.0,-741.0,397.0,-142.0
307,71.0,-920.0,153.0,-707.0,351.0,-143.0
308,55.0,-901.0,171.0,-687.0,315.0,-138.0
309,43.0,-917.0,200.0,-676.0,291.0,-158.0
310,26.0,-935.0,249.0,-642.0,284.0,-157.0
311,20.0,-960.0,292.0,-579.0,295.0,-128.0
312,353.0,-564.0,43.0,742.0,-515.0,-122.0
313,-22.0,-987.0,-7.0,1421.0,-356.0,-675.0
314,97.0,-965.0,95.0,1296.0,-436.0,-725.0
315,96.0,-921.0,211.0,1147.0,-329.0,-756.0
316,59.0,-905.0,190.0,993.0,-184.0,-830.0
317,139.0,-921.0,109.0,841.0,-112.0,-896.0
318,198.0,-951.0,99.0,719.0,-54.0,-892.0
319,241.0,-930.0,92.0,652.0,-13.0,-826.0
320,314.0,-896.0,89.0,638.0,4.0,-720.0
321,323.0,-907.0,91.0,607.0,40.0,-581.0
322,343.0,-913.0,99.0,569.0,60.0,-426.0
323,344.0,-928.0,88.0,549.0,78.0,-273.0
324,83.0,-944.0,230.0,446.0,82.0,276.0
325,116.0,-961.0,233.0,81.0,145.0,-98.0
326,157.0,-994.0,223.0,66.0,150.0,-130.0
327,149.0,-984.0,231.0,68.0,174.0,-153.0
328,150.0,-966.0,240.0,72.0,188.0,-172.0
329,112.0,-968.0,251.0,68.0,217.0,-195.0
330,125.0,-983.0,233.0,65.0,206.0,-227.0
331,178.0,-979.0,215.0,71.0,184.0,-245.0
332,194.0,-962.0,220.0,82.0,183.0,-230.0
333,202.0,-958.0,215.0,88.0,190.0,-203.0
334,196.0,-933.0,221.0,95.0,194.0,-167.0
335,182.0,-925.0,227.0,96.0,200.0,-131.0
336,193.0,-879.0,251.0,88.0,64.0,-7.0
337,189.0,-864.0,259.0,74.0,70.0,32.0
338,177.0,-846.0,276.0,53.0,83.0,72.0
339,163.0,-856.0,293.0,20.0,99.0,100.0
340,155.0,-1071.0,217.0,140.0,130.0,63.0
341,133.0,-983.0,270.0,203.0,93.0,58.0
342,83.0,-988.0,285.0,170.0,112.0,14.0
343,93.0,-970.0,274.0,167.0,84.0,-41.0
344,142.0,-942.0,289.0,163.0,48.0,-85.0
345,173.0,-950.0,263.0,137.0,53.0,-101.0
346,192.0,-959.0,254.0,128.0,68.0,-94.0
347,197.0,-962.0,236.0,126.0,81.0,-74.0
348,171.0,-931.0,271.0,135.0,94.0,-49.0
349,203.0,-1063.0,256.0,232.0,196.0,-29.0
350,73.0,-1021.0,376.0,831.0,-28.0,-160.0
351,74.0,-982.0,383.0,846.0,-61.0,-174.0
352,109.0,-992.0,389.0,840.0,-98.0,-194.0
353,131.0,-971.0,388.0,846.0,-114.0,-209.0
354,162.0,-980.0,391.0,834.0,-114.0,-209.0
355,204.0,-997.0,389.0,827.0,-101.0,-200.0
356,250.0,-1005.0,384.0,842.0,-82.0,-203.0
357,255.0,-1014.0,392.0,854.0,-39.0,-209.0
358,244.0,-1022.0,402.0,871.0,3.0,-219.0
359,237.0,-1036.0,410.0,889.0,33.0,-234.0
360,237.0,-1056.0,416.0,908.0,55.0,-262.0
361,443.0,-1398.0,222.0,2814.0,744.0,-847.0
362,326.0,-1413.0,357.0,2798.0,798.0,-945.0
363,319.0,-1373.0,413.0,2854.0,746.0,-992.0
364,293.0,-1212.0,371.0,2955.0,745.0,-992.0
365,231.0,-1031.0,288.0,2996.0,821.0,-995.0
366,130.0,-725.0,284.0,2998.0,858.0,-998.0
367,-3.0,-382.0,319.0,2880.0,816.0,-999.0
368,-72.0,-62.0,335.0,2565.0,665.0,-952.0
369,-12.0,145.0,295.0,2045.0,422.0,-764.0
370,-44.0,-471.0,-254.0,-2876.0,-227.0,1025.0
371,454.0,-1540.0,602.0,-3390.0,-782.0,757.0
372,487.0,-1557.0,666.0,-3286.0,-754.0,654.0
373,511.0,-1530.0,722.0,-3192.0,-704.0,597.0
374,509.0,-1524.0,777.0,-3124.0,-625.0,601.0
375,465.0,-1530.0,844.0,-3050.0,-548.0,570.0
376,419.0,-1555.0,909.0,-2941.0,-507.0,479.0
377,335.0,-1531.0,989.0,-2779.0,-475.0,398.0
378,324.0,-1445.0,1041.0,-2611.0,-455.0,354.0
379,256.0,-1416.0,1041.0,-2480.0,-371.0,352.0
380,227.0,-1173.0,647.0,301.0,-420.0,46.0
381,294.0,-915.0,600.0,576.0,-286.0,-20.0
382,386.0,-650.0,478.0,570.0,-74.0,-177.0
383,287.0,-752.0,291.0,301.0,226.0,-214.0
384,150.0,-841.0,85.0,119.0,413.0,-162.0
385,68.0,-942.0,-135.0,28.0,453.0,-168.0
386,153.0,-1170.0,-406.0,39.0,417.0,-197.0
387,184.0,-1375.0,-629.0,310.0,484.0,-176.0
388,184.0,-1634.0,-798.0,740.0,647.0,-144.0
389,104.0,-1661.0,-826.0,1272.0,834.0,-139.0
390,-3.0,-1393.0,-485.0,1642.0,824.0,-148.0
391,129.0,-982.0,83.0,632.0,45.0,-294.0
392,155.0,-961.0,124.0,651.0,-6.0,-243.0
393,113.0,-963.0,134.0,641.0,-3.0,-202.0
394,90.0,-977.0,144.0,625.0,-4.0,-211.0
395,109.0,-985.0,132.0,604.0,-26.0,-242.0
396,106.0,-1002.0,113.0,580.0,-20.0,-259.0
397,141.0,-994.0,123.0,578.0,-27.0,-266.0
398,172.0,-969.0,155.0,582.0,-26.0,-247.0
399,159.0,-960.0,175.0,567.0,-8.0,-205.0
400,71.0,-935.0,273.0,16.0,122.0,-335.0
401,205.0,-990.0,166.0,-2.0,95.0,-126.0
402,182.0,-940.0,217.0,180.0,148.0,241.0
403,150.0,-939.0,228.0,181.0,154.0,261.0
404,155.0,-949.0,226.0,169.0,139.0,253.0
405,134.0,-953.0,224.0,158.0,136.0,243.0
406,107.0,-949.0,234.0,150.0,129.0,225.0
407,79.0,-947.0,251.0,136.0,113.0,190.0
408,119.0,-950.0,253.0,114.0,85.0,141.0
409,136.0,-958.0,248.0,90.0,91.0,104.0
410,102.0,-972.0,234.0,72.0,120.0,74.0
411,92.0,-976.0,222.0,68.0,119.0,39.0
412,127.0,-949.0,244.0,-57.0,81.0,0.0
413,126.0,-954.0,239.0,-67.0,83.0,-1.0
414,117.0,-955.0,240.0,-73.0,83.0,-6.0
415,121.0,-951.0,239.0,-77.0,78.0,-10.0
416,116.0,-948.0,244.0,-82.0,74.0,-14.0
417,117.0,-952.0,245.0,-88.0,67.0,-18.0
418,132.0,-954.0,237.0,-94.0,63.0,-22.0
419,128.0,-956.0,232.0,-95.0,68.0,-21.0
420,126.0,-960.0,229.0,-91.0,69.0,-21.0
421,123.0,-973.0,223.0,-86.0,66.0,-22.0
422,133.0,-968.0,221.0,-76.0,57.0,-20.0
423,127.0,-972.0,230.0,28.0,44.0,21.0
424,128.0,-969.0,226.0,33.0,54.0,16.0
425,125.0,-969.0,226.0,40.0,65.0,11.0
426,127.0,-974.0,225.0,47.0,68.0,6.0
427,134.0,-979.0,220.0,57.0,68.0,8.0
428,128.0,-973.0,224.0,72.0,70.0,16.0
429,134.0,-970.0,227.0,81.0,69.0,22.0
430,134.0,-968.0,228.0,88.0,70.0,30.0
431,114.0,-967.0,234.0,97.0,72.0,38.0
432,106.0,-978.0,239.0,103.0,70.0,33.0
433,124.0,-968.0,241.0,106.0,60.0,23.0
434,114.0,-961.0,274.0,252.0,110.0,117.0
435,102.0,-954.0,281.0,247.0,116.0,125.0
436,81.0,-949.0,287.0,237.0,119.0,124.0
437,99.0,-958.0,284.0,227.0,109.0,116.0
438,101.0,-968.0,286.0,225.0,118.0,117.0
439,92.0,-980.0,292.0,223.0,127.0,119.0
440,84.0,-979.0,298.0,224.0,133.0,116.0
441,75.0,-983.0,307.0,227.0,136.0,110.0
442,50.0,-976.0,318.0,226.0,139.0,100.0
443,-156.0,-1247.0,361.0,879.0,-467.0,521.0
444,-834.0,-851.0,-52.0,321.0,-2350.0,1807.0
445,-833.0,-956.0,-228.0,140.0,-3225.0,1859.0
446,-141.0,-966.0,-502.0,78.0,-4280.0,1710.0
447,52.0,-877.0,-603.0,68.0,-4589.0,1497.0
448,114.0,-896.0,-662.0,0.0,-4657.0,1349.0
449,171.0,-838.0,-681.0,-12.0,-4694.0,1256.0
450,136.0,-765.0,-675.0,-47.0,-4640.0,1219.0
451,116.0,-719.0,-667.0,-147.0,-4593.0,1219.0
452,88.0,-712.0,-646.0,-282.0,-4551.0,1252.0
453,110.0,-756.0,-625.0,-424.0,-4529.0,1310.0
454,102.0,-788.0,-581.0,-528.0,-4482.0,1376.0
455,799.0,-1117.0,431.0,-983.0,-3386.0,1503.0
456,890.0,-1194.0,539.0,-954.0,-3283.0,1420.0
457,967.0,-1189.0,627.0,-832.0,-3125.0,1310.0
458,1053.0,-1107.0,699.0,-667.0,-2919.0,1148.0
459,1108.0,-1061.0,769.0,-537.0,-2673.0,977.0
460,1217.0,-1043.0,819.0,-424.0,-2420.0,823.0
461,1271.0,-1052.0,869.0,-299.0,-2107.0,665.0
462,1196.0,-1089.0,921.0,-122.0,-1767.0,448.0
463,1141.0,-957.0,1030.0,118.0,-1527.0,115.0
464,1078.0,-867.0,1110.0,271.0,-1359.0,-166.0
465,1069.0,-758.0,1017.0,329.0,-1233.0,-348.0
466,-63.0,-1008.0,360.0,67.0,132.0,-280.0
467,213.0,-1009.0,219.0,-118.0,166.0,-100.0
468,70.0,-1004.0,256.0,-50.0,213.0,2.0
469,107.0,-962.0,251.0,-10.0,146.0,16.0
470,50.0,-986.0,266.0,12.0,122.0,30.0
471,133.0,-966.0,256.0,39.0,60.0,40.0
472,146.0,-969.0,258.0,66.0,36.0,87.0
473,140.0,-945.0,256.0,99.0,39.0,150.0
474,94.0,-908.0,267.0,132.0,28.0,216.0
475,84.0,-927.0,288.0,139.0,-8.0,227.0
476,122.0,-973.0,264.0,130.0,-41.0,195.0
477,50.0,-948.0,287.0,143.0,-72.0,-9.0
478,117.0,-944.0,277.0,-30.0,-69.0,102.0
479,158.0,-951.0,270.0,-26.0,-97.0,108.0
480,172.0,-954.0,277.0,-21.0,-89.0,121.0
481,167.0,-947.0,280.0,-23.0,-63.0,135.0
482,110.0,-934.0,287.0,-28.0,-27.0,140.0
483,43.0,-923.0,314.0,-30.0,-19.0,126.0
484,72.0,-948.0,293.0,-38.0,-56.0,92.0
485,98.0,-956.0,277.0,-31.0,-79.0,80.0
486,148.0,-978.0,267.0,13.0,-13.0,118.0
487,139.0,-960.0,278.0,27.0,26.0,135.0
488,135.0,-956.0,281.0,28.0,45.0,140.0
489,137.0,-956.0,278.0,25.0,60.0,140.0
490,114.0,-946.0,284.0,25.0,84.0,142.0
491,80.0,-941.0,294.0,25.0,99.0,137.0
492,87.0,-945.0,292.0,24.0,88.0,119.0
493,102.0,-953.0,287.0,24.0,82.0,107.0
494,117.0,-967.0,282.0,26.0,86.0,102.0
495,120.0,-970.0,276.0,34.0,98.0,105.0
496,74.0,-1009.0,299.0,92.0,119.0,118.0
497,259.0,-882.0,272.0,582.0,-448.0,613.0
498,276.0,-814.0,293.0,512.0,-381.0,539.0
499,234.0,-797.0,323.0,421.0,-293.0,488.0
500,191.0,-711.0,356.0,351.0,-232.0,468.0
501,72.0,-629.0,387.0,253.0,-179.0,503.0
502,-18.0,-540.0,398.0,127.0,-212.0,583.0
503,-214.0,-459.0,421.0,-64.0,-296.0,685.0
504,-337.0,-450.0,413.0,-319.0,-545.0,821.0
505,-584.0,-595.0,402.0,-600.0,-866.0,964.0
506,-1073.0,-800.0,396.0,-776.0,-1416.0,1087.0
507,-536.0,-821.0,206.0,-787.0,-2749.0,1100.0
508,212.0,-945.0,159.0,-524.0,-3282.0,738.0
509,128.0,-966.0,179.0,-506.0,-3139.0,652.0
510,47.0,-908.0,204.0,-505.0,-3048.0,562.0
511,5.0,-1006.0,179.0,-555.0,-3009.0,483.0
512,-14.0,-1018.0,199.0,-484.0,-3006.0,434.0
513,40.0,-1015.0,182.0,-427.0,-2994.0,361.0
514,104.0,-956.0,181.0,-351.0,-2932.0,271.0
515,255.0,-908.0,155.0,-321.0,-2822.0,200.0
516,351.0,-871.0,144.0,-311.0,-2604.0,143.0
517,388.0,-867.0,155.0,-312.0,-2317.0,80.0
518,391.0,-952.0,197.0,-297.0,-2008.0,26.0
519,-110.0,-1055.0,284.0,-181.0,319.0,76.0
520,-11.0,-1017.0,238.0,-4.0,60.0,-81.0
521,5.0,-976.0,271.0,24.0,44.0,-96.0
522,21.0,-988.0,286.0,16.0,38.0,-98.0
523,41.0,-996.0,243.0,10.0,49.0,-102.0
524,-1.0,-963.0,258.0,29.0,64.0,-95.0
525,-20.0,-947.0,285.0,27.0,53.0,-96.0
526,-5.0,-973.0,267.0,5.0,40.0,-119.0
527,19.0,-963.0,262.0,-9.0,30.0,-138.0
528,4.0,-1062.0,217.0,155.0,52.0,-33.0
529,23.0,-1046.0,251.0,223.0,21.0,-43.0
530,39.0,-1078.0,257.0,263.0,7.0,-38.0
531,46.0,-1114.0,240.0,305.0,10.0,-32.0
532,9.0,-1105.0,271.0,357.0,5.0,-22.0
533,7.0,-1119.0,282.0,392.0,-23.0,-24.0
534,53.0,-1177.0,274.0,416.0,-56.0,-28.0
535,75.0,-1213.0,284.0,447.0,-76.0,-9.0
536,55.0,-1285.0,314.0,489.0,-83.0,18.0
537,123.0,-1392.0,299.0,562.0,-88.0,21.0
538,129.0,-1465.0,351.0,707.0,-37.0,19.0
539,56.0,-1600.0,361.0,891.0,62.0,-26.0
540,89.0,-1616.0,310.0,1119.0,74.0,-212.0
541,303.0,-1430.0,255.0,1286.0,5.0,-580.0
542,209.0,-1760.0,216.0,1290.0,137.0,-631.0
543,24.0,-496.0,-952.0,-1620.0,441.0,225.0
544,-106.0,-1255.0,1.0,-2797.0,-730.0,209.0
545,426.0,-1296.0,565.0,-1727.0,-351.0,369.0
546,471.0,-1232.0,570.0,-1576.0,-213.0,243.0
547,432.0,-1211.0,596.0,-1456.0,-40.0,146.0
548,309.0,-1232.0,631.0,-1338.0,121.0,118.0
549,227.0,-1217.0,643.0,-1157.0,205.0,96.0
550,193.0,-1128.0,642.0,-953.0,247.0,50.0
551,124.0,-1104.0,611.0,-811.0,297.0,-4.0
552,77.0,-1085.0,555.0,-675.0,319.0,-51.0
553,47.0,-1044.0,476.0,-524.0,333.0,-85.0
554,35.0,-955.0,404.0,-397.0,342.0,-111.0
555,37.0,-952.0,334.0,-353.0,359.0,-102.0
556,-41.0,-960.0,77.0,415.0,-211.0,-96.0
557,-45.0,-938.0,35.0,485.0,-207.0,-98.0
558,-64.0,-868.0,-2.0,523.0,-192.0,-107.0
559,-46.0,-885.0,-41.0,483.0,-183.0,-95.0
560,-20.0,-930.0,-47.0,447.0,-170.0,-69.0
561,-37.0,-984.0,-23.0,445.0,-137.0,-58.0
562,-15.0,-970.0,-11.0,488.0,-153.0,-46.0
563,-4.0,-944.0,-2.0,520.0,-181.0,-46.0
564,20.0,-943.0,16.0,533.0,-226.0,-69.0
565,201.0,-644.0,-51.0,528.0,-253.0,-286.0
566,124.0,-861.0,-119.0,259.0,-155.0,-506.0
567,-27.0,-1035.0,-19.0,1029.0,332.0,-421.0
568,232.0,-984.0,165.0,302.0,44.0,-336.0
569,225.0,-993.0,141.0,295.0,63.0,-257.0
570,245.0,-967.0,152.0,313.0,43.0,-158.0
571,249.0,-921.0,182.0,318.0,29.0,-51.0
572,166.0,-912.0,220.0,304.0,61.0,32.0
573,82.0,-912.0,265.0,284.0,91.0,43.0
574,35.0,-913.0,295.0,253.0,100.0,0.0
575,45.0,-919.0,267.0,213.0,97.0,-68.0
576,25.0,-945.0,252.0,182.0,114.0,-128.0
577,82.0,-953.0,249.0,160.0,100.0,-198.0
578,93.0,-954.0,234.0,138.0,110.0,-252.0
579,96.0,-960.0,256.0,128.0,128.0,-306.0
580,114.0,-947.0,264.0,122.0,150.0,-357.0
581,79.0,-952.0,273.0,107.0,173.0,-407.0
582,130.0,-957.0,274.0,81.0,146.0,-461.0
583,163.0,-1017.0,208.0,67.0,162.0,-474.0
584,212.0,-935.0,241.0,101.0,154.0,-41.0
585,216.0,-935.0,230.0,115.0,148.0,-26.0
586,184.0,-931.0,232.0,135.0,146.0,1.0
587,278.0,-865.0,213.0,168.0,97.0,55.0
588,260.0,-830.0,238.0,193.0,100.0,150.0
589,223.0,-866.0,261.0,187.0,128.0,214.0
590,244.0,-902.0,250.0,183.0,129.0,255.0
591,242.0,-877.0,241.0,198.0,142.0,314.0
592,122.0,-903.0,310.0,190.0,174.0,327.0
593,196.0,-961.0,249.0,135.0,159.0,237.0
594,90.0,-931.0,295.0,119.0,198.0,197.0
595,87.0,-904.0,318.0,91.0,167.0,148.0
596,93.0,-933.0,300.0,41.0,152.0,77.0
597,167.0,-943.0,279.0,7.0,125.0,12.0
598,177.0,-958.0,283.0,-15.0,133.0,-11.0
599,192.0,-936.0,271.0,37.0,146.0,-78.0
600,171.0,-950.0,292.0,111.0,177.0,-94.0
601,214.0,-967.0,286.0,142.0,129.0,-140.0
602,191.0,-981.0,297.0,150.0,142.0,-146.0
603,163.0,-984.0,299.0,166.0,147.0,-161.0
604,181.0,-976.0,294.0,188.0,135.0,-179.0
605,177.0,-969.0,300.0,207.0,134.0,-192.0
606,207.0,-963.0,297.0,225.0,120.0,-206.0
607,219.0,-958.0,302.0,245.0,116.0,-208.0
608,221.0,-954.0,302.0,264.0,119.0,-204.0
609,210.0,-955.0,304.0,277.0,125.0,-192.0
610,201.0,-952.0,312.0,294.0,120.0,-184.0
611,199.0,-933.0,315.0,314.0,111.0,-186.0
612,225.0,-1000.0,375.0,485.0,62.0,-314.0
613,222.0,-999.0,391.0,513.0,61.0,-313.0
614,206.0,-997.0,398.0,529.0,64.0,-296.0
615,198.0,-1000.0,407.0,547.0,50.0,-300.0
616,173.0,-1007.0,418.0,557.0,34.0,-307.0
617,180.0,-986.0,419.0,590.0,11.0,-308.0
618,187.0,-960.0,420.0,617.0,-9.0,-301.0
619,184.0,-935.0,417.0,635.0,-24.0,-290.0
620,192.0,-926.0,425.0,639.0,-37.0,-299.0
621,228.0,-911.0,419.0,642.0,-53.0,-295.0
622,271.0,-891.0,410.0,641.0,-59.0,-300.0
623,362.0,-1215.0,503.0,1099.0,343.0,-590.0
624,257.0,-203.0,96.0,1330.0,153.0,-594.0
625,64.0,-95.0,19.0,915.0,363.0,-393.0
626,-368.0,-299.0,-61.0,389.0,568.0,-15.0
627,-331.0,-545.0,-84.0,55.0,252.0,475.0
628,68.0,-466.0,-179.0,-30.0,-116.0,672.0
629,17.0,12.0,-203.0,-160.0,48.0,619.0
630,3.0,-11.0,-279.0,-742.0,178.0,801.0
631,85.0,-361.0,-365.0,-1345.0,231.0,1174.0
632,142.0,-495.0,-405.0,-1606.0,356.0,1400.0
633,168.0,-415.0,-392.0,-1726.0,514.0,1443.0
634,157.0,-379.0,-375.0,-1939.0,684.0,1424.0
635,482.0,-1511.0,412.0,-3742.0,195.0,703.0
636,168.0,-1375.0,705.0,-2505.0,-504.0,370.0
637,101.0,-1362.0,709.0,-2380.0,-369.0,412.0
638,59.0,-1348.0,717.0,-2245.0,-304.0,420.0
639,49.0,-1339.0,722.0,-2115.0,-286.0,407.0
640,130.0,-1287.0,725.0,-1973.0,-323.0,434.0
641,224.0,-1293.0,725.0,-1849.0,-331.0,468.0
642,300.0,-1277.0,734.0,-1679.0,-292.0,417.0
643,279.0,-1196.0,797.0,-1473.0,-209.0,290.0
644,150.0,-1137.0,869.0,-1288.0,-135.0,160.0
645,68.0,-1058.0,932.0,-1110.0,-158.0,91.0
646,1.0,-1025.0,984.0,-959.0,-203.0,80.0
647,-4.0,-1527.0,-753.0,1994.0,221.0,-207.0
648,222.0,-1013.0,-57.0,1437.0,-430.0,60.0
649,319.0,-845.0,198.0,1387.0,-504.0,201.0
650,280.0,-739.0,291.0,1194.0,-267.0,242.0
651,114.0,-872.0,386.0,944.0,-36.0,235.0
652,259.0,-880.0,294.0,766.0,-76.0,236.0
653,120.0,-978.0,234.0,621.0,31.0,269.0
654,-40.0,-1012.0,220.0,564.0,115.0,214.0
655,-66.0,-947.0,235.0,564.0,72.0,102.0
656,-102.0,-902.0,306.0,535.0,45.0,-14.0
657,-96.0,-917.0,318.0,479.0,46.0,-150.0
658,-43.0,-930.0,295.0,434.0,44.0,-274.0
659,120.0,-891.0,253.0,197.0,80.0,-75.0
660,75.0,-909.0,267.0,172.0,90.0,-62.0
661,130.0,-934.0,258.0,152.0,58.0,-70.0
662,144.0,-968.0,255.0,139.0,49.0,-61.0
663,88.0,-982.0,273.0,131.0,65.0,-53.0
664,120.0,-968.0,262.0,124.0,44.0,-72.0
665,115.0,-961.0,277.0,117.0,48.0,-83.0
666,76.0,-979.0,276.0,103.0,64.0,-107.0
667,73.0,-992.0,266.0,95.0,56.0,-149.0
668,119.0,-974.0,259.0,94.0,30.0,-183.0
669,145.0,-963.0,258.0,89.0,22.0,-187.0
670,154.0,-973.0,283.0,-7.0,101.0,-4.0
671,168.0,-945.0,256.0,15.0,160.0,-60.0
672,109.0,-895.0,288.0,14.0,157.0,13.0
673,136.0,-910.0,279.0,-4.0,135.0,10.0
674,165.0,-917.0,265.0,-15.0,125.0,18.0
675,163.0,-923.0,267.0,-19.0,134.0,43.0
676,136.0,-950.0,271.0,-20.0,145.0,58.0
677,126.0,-968.0,272.0,-17.0,141.0,58.0
678,139.0,-970.0,277.0,-14.0,133.0,52.0
679,127.0,-867.0,289.0,129.0,127.0,-6.0
680,115.0,-844.0,312.0,111.0,113.0,12.0
681,127.0,-919.0,292.0,72.0,100.0,19.0
682,155.0,-966.0,286.0,78.0,93.0,22.0
683,152.0,-1034.0,269.0,98.0,102.0,25.0
684,180.0,-1021.0,276.0,146.0,107.0,20.0
685,143.0,-1028.0,300.0,179.0,134.0,19.0
686,80.0,-1013.0,310.0,204.0,154.0,-13.0
687,93.0,-983.0,311.0,218.0,136.0,-66.0
688,88.0,-971.0,329.0,215.0,129.0,-113.0
689,106.0,-979.0,319.0,204.0,118.0,-151.0
690,142.0,-1017.0,376.0,638.0,-9.0,-302.0
691,177.0,-996.0,378.0,642.0,-28.0,-335.0
692,192.0,-984.0,382.0,634.0,-21.0,-352.0
693,144.0,-991.0,393.0,637.0,11.0,-341.0
694,148.0,-969.0,389.0,660.0,11.0,-343.0
695,161.0,-943.0,396.0,680.0,6.0,-344.0
696,165.0,-919.0,401.0,690.0,6.0,-351.0
697,196.0,-906.0,396.0,691.0,3.0,-350.0
698,225.0,-893.0,404.0,694.0,13.0,-341.0
699,241.0,-922.0,406.0,681.0,37.0,-336.0
700,292.0,-932.0,400.0,687.0,54.0,-336.0
701,204.0,-1155.0,690.0,1419.0,511.0,-834.0
702,-12.0,-194.0,-211.0,-173.0,271.0,239.0
703,-51.0,-316.0,-234.0,-609.0,229.0,279.0
704,-78.0,-341.0,-251.0,-887.0,155.0,409.0
705,-46.0,-304.0,-263.0,-1108.0,57.0,519.0
706,-5.0,-324.0,-276.0,-1378.0,7.0,565.0
707,31.0,-314.0,-272.0,-1629.0,-1.0,588.0
708,62.0,-327.0,-245.0,-1902.0,26.0,638.0
709,52.0,-400.0,-187.0,-2196.0,88.0,728.0
710,30.0,-567.0,-137.0,-2465.0,143.0,834.0
711,52.0,-734.0,-82.0,-2625.0,156.0,916.0
712,162.0,-884.0,88.0,-2717.0,173.0,847.0
713,25.0,-1374.0,544.0,-2309.0,-35.0,576.0
714,249.0,-969.0,626.0,-1560.0,-387.0,405.0
715,297.0,-1277.0,567.0,-1659.0,-352.0,440.0
716,382.0,-1002.0,591.0,-1655.0,-307.0,323.0
717,264.0,-1500.0,596.0,-1673.0,-187.0,269.0
718,217.0,-1003.0,654.0,-1272.0,-208.0,187.0
719,211.0,-1102.0,610.0,-1251.0,-219.0,195.0
720,208.0,-1126.0,616.0,-1174.0,-212.0,201.0
721,255.0,-1135.0,626.0,-1032.0,-222.0,168.0
722,259.0,-1120.0,650.0,-873.0,-193.0,126.0
723,220.0,-1096.0,663.0,-699.0,-161.0,89.0
724,111.0,-1063.0,654.0,-523.0,-149.0,49.0
725,256.0,-982.0,14.0,829.0,-430.0,-268.0
726,23.0,-1028.0,-10.0,735.0,-110.0,-598.0
727,87.0,-1037.0,-25.0,780.0,-195.0,-611.0
728,153.0,-1029.0,-10.0,858.0,-230.0,-584.0
729,177.0,-1030.0,-7.0,926.0,-219.0,-532.0
730,150.0,-997.0,-4.0,994.0,-186.0,-467.0
731,136.0,-919.0,86.0,1027.0,-194.0,-410.0
732,189.0,-955.0,96.0,939.0,-222.0,-370.0
733,261.0,-962.0,65.0,861.0,-182.0,-293.0
734,257.0,-912.0,134.0,832.0,-76.0,-154.0
735,261.0,-910.0,189.0,757.0,12.0,-53.0
736,125.0,-922.0,207.0,669.0,162.0,-3.0
737,39.0,-941.0,254.0,274.0,102.0,79.0
738,172.0,-970.0,204.0,113.0,64.0,-57.0
739,164.0,-962.0,211.0,119.0,79.0,-18.0
740,123.0,-966.0,225.0,123.0,105.0,6.0
741,120.0,-966.0,222.0,122.0,111.0,6.0
742,106.0,-958.0,228.0,122.0,118.0,-1.0
743,81.0,-953.0,242.0,120.0,127.0,-11.0
744,93.0,-958.0,238.0,111.0,123.0,-29.0
745,107.0,-950.0,238.0,105.0,113.0,-36.0
746,93.0,-948.0,242.0,98.0,113.0,-29.0
747,109.0,-956.0,238.0,90.0,107.0,-31.0
748,131.0,-969.0,231.0,85.0,101.0,-30.0
749,95.0,-963.0,242.0,17.0,98.0,-57.0
750,117.0,-940.0,250.0,23.0,80.0,-49.0
751,93.0,-947.0,256.0,21.0,85.0,-38.0
752,80.0,-954.0,258.0,18.0,85.0,-34.0
753,79.0,-975.0,242.0,14.0,76.0,-37.0
754,97.0,-980.0,235.0,22.0,62.0,-41.0
755,123.0,-949.0,249.0,33.0,47.0,-34.0
756,109.0,-949.0,249.0,28.0,48.0,-14.0
757,78.0,-950.0,258.0,21.0,45.0,-5.0
758,109.0,-946.0,247.0,-42.0,3.0,-18.0
759,107.0,-953.0,246.0,-43.0,2.0,-15.0
760,102.0,-956.0,243.0,-44.0,2.0,-15.0
761,104.0,-960.0,238.0,-41.0,-1.0,-15.0
762,119.0,-962.0,233.0,-35.0,-9.0,-12.0
763,116.0,-953.0,243.0,-26.0,-11.0,-2.0
764,111.0,-956.0,245.0,-25.0,-10.0,3.0
765,105.0,-957.0,246.0,-25.0,-6.0,3.0
766,98.0,-959.0,249.0,-24.0,-5.0,0.0
767,102.0,-960.0,251.0,-23.0,-2.0,-6.0
768,102.0,-979.0,243.0,-23.0,7.0,-14.0
769,122.0,-965.0,238.0,-16.0,-13.0,-33.0
770,59.0,-1008.0,266.0,152.0,103.0,93.0
771,79.0,-1021.0,258.0,162.0,87.0,80.0
772,86.0,-1043.0,253.0,172.0,82.0,80.0
773,68.0,-1034.0,261.0,191.0,82.0,88.0
774,46.0,-1038.0,269.0,208.0,72.0,91.0
775,16.0,-1049.0,290.0,225.0,49.0,86.0
776,-11.0,-1072.0,301.0,234.0,7.0,79.0
777,-9.0,-1078.0,301.0,242.0,-57.0,78.0
778,2.0,-1092.0,293.0,263.0,-107.0,98.0
779,-33.0,-1084.0,301.0,308.0,-124.0,167.0
780,-84.0,-1125.0,319.0,351.0,-160.0,303.0
781,-624.0,-998.0,147.0,366.0,-1890.0,1189.0
782,190.0,-891.0,-419.0,57.0,-4002.0,981.0
783,132.0,-957.0,-198.0,-643.0,-3632.0,1355.0
784,142.0,-1022.0,-155.0,-716.0,-3765.0,1379.0
785,153.0,-1061.0,-108.0,-738.0,-3936.0,1368.0
786,172.0,-1071.0,-61.0,-728.0,-4134.0,1327.0
787,206.0,-1049.0,-31.0,-697.0,-4341.0,1293.0
788,312.0,-1033.0,4.0,-670.0,-4533.0,1263.0
789,456.0,-1062.0,60.0,-640.0,-4603.0,1188.0
790,503.0,-1093.0,151.0,-594.0,-4466.0,1078.0
791,478.0,-1105.0,254.0,-528.0,-4215.0,1031.0
792,817.0,-1038.0,494.0,228.0,-1601.0,-127.0
793,951.0,-912.0,657.0,477.0,-1338.0,-338.0
794,1021.0,-475.0,640.0,588.0,-933.0,-367.0
795,548.0,-597.0,495.0,199.0,-255.0,-121.0
796,185.0,-903.0,294.0,-142.0,97.0,55.0
797,-131.0,-1144.0,103.0,-168.0,193.0,70.0
798,-156.0,-1187.0,-59.0,19.0,95.0,-55.0
799,202.0,-1162.0,21.0,286.0,-130.0,-153.0
800,311.0,-1047.0,247.0,503.0,-63.0,-79.0
801,394.0,-895.0,415.0,521.0,40.0,123.0
802,476.0,-975.0,380.0,329.0,95.0,361.0
803,159.0,-974.0,247.0,-49.0,-22.0,-375.0
804,111.0,-974.0,244.0,31.0,-148.0,-129.0
805,140.0,-952.0,239.0,43.0,-146.0,-142.0
806,127.0,-917.0,264.0,60.0,-136.0,-128.0
807,112.0,-946.0,274.0,59.0,-134.0,-119.0
808,128.0,-987.0,250.0,57.0,-144.0,-118.0
809,185.0,-985.0,238.0,76.0,-159.0,-108.0
810,199.0,-1023.0,221.0,92.0,-136.0,-74.0
811,182.0,-1009.0,225.0,124.0,-108.0,-36.0
812,230.0,-972.0,220.0,152.0,-111.0,10.0
813,216.0,-948.0,245.0,159.0,-72.0,66.0
814,201.0,-953.0,261.0,149.0,-36.0,110.0
815,105.0,-951.0,272.0,-42.0,47.0,60.0
816,129.0,-964.0,257.0,-49.0,-10.0,54.0
817,96.0,-973.0,274.0,13.0,132.0,142.0
818,122.0,-925.0,274.0,16.0,137.0,135.0
819,55.0,-902.0,300.0,8.0,151.0,156.0
820,124.0,-879.0,305.0,-7.0,104.0,156.0
821,118.0,-886.0,330.0,-48.0,107.0,182.0
822,109.0,-985.0,310.0,-114.0,109.0,225.0
823,133.0,-1088.0,285.0,-162.0,100.0,268.0
824,107.0,-1069.0,322.0,-170.0,99.0,331.0
825,66.0,-1091.0,306.0,-216.0,112.0,378.0
826,-15.0,-1145.0,319.0,-249.0,135.0,399.0
827,49.0,-1100.0,367.0,-219.0,35.0,449.0
828,-218.0,-1032.0,-12.0,-429.0,-3651.0,166.0
829,72.0,-906.0,-118.0,833.0,212.0,537.0
830,240.0,-950.0,212.0,917.0,274.0,387.0
831,-84.0,-883.0,501.0,913.0,571.0,299.0
832,-297.0,-588.0,757.0,726.0,647.0,149.0
833,-20.0,-972.0,625.0,213.0,378.0,-64.0
834,206.0,-1019.0,332.0,29.0,160.0,-114.0
835,106.0,-1195.0,178.0,-65.0,276.0,-53.0
836,241.0,-1177.0,198.0,9.0,174.0,-15.0
837,103.0,-985.0,239.0,-81.0,127.0,-72.0
838,127.0,-966.0,242.0,-66.0,143.0,-67.0
839,106.0,-933.0,250.0,-54.0,181.0,-43.0
840,7.0,-952.0,266.0,-52.0,225.0,-25.0
841,56.0,-970.0,251.0,-42.0,200.0,-27.0
842,106.0,-972.0,234.0,-18.0,176.0,-21.0
843,73.0,-1012.0,228.0,1.0,190.0,-1.0
844,51.0,-1025.0,222.0,29.0,189.0,-3.0
845,43.0,-983.0,250.0,63.0,156.0,-10.0
846,51.0,-959.0,264.0,72.0,120.0,-12.0
847,32.0,-944.0,278.0,66.0,105.0,-12.0
848,59.0,-977.0,256.0,22.0,59.0,-17.0
849,73.0,-975.0,256.0,26.0,55.0,-24.0
850,68.0,-964.0,262.0,28.0,58.0,-19.0
851,57.0,-948.0,267.0,26.0,58.0,-14.0
852,55.0,-947.0,260.0,24.0,54.0,-15.0
853,66.0,-945.0,261.0,30.0,46.0,-18.0
854,76.0,-963.0,255.0,33.0,41.0,-15.0
855,69.0,-979.0,250.0,41.0,47.0,-13.0
856,73.0,-961.0,265.0,52.0,42.0,-10.0
857,69.0,-960.0,272.0,50.0,44.0,-7.0
858,66.0,-968.0,272.0,40.0,52.0,-9.0
859,56.0,-970.0,280.0,90.0,17.0,-103.0
860,83.0,-996.0,295.0,86.0,4.0,-108.0
861,119.0,-1002.0,278.0,78.0,0.0,-103.0
862,78.0,-1000.0,276.0,79.0,33.0,-85.0
863,20.0,-979.0,289.0,83.0,54.0,-95.0
864,17.0,-974.0,297.0,80.0,30.0,-142.0
865,25.0,-993.0,297.0,79.0,4.0,-189.0
866,50.0,-1234.0,278.0,61.0,-18.0,-231.0
867,116.0,-1395.0,124.0,167.0,-44.0,-290.0
868,159.0,-1120.0,298.0,416.0,-129.0,-248.0
869,88.0,-801.0,80.0,1313.0,-280.0,-235.0
870,10.0,-456.0,-611.0,-1123.0,1164.0,415.0
871,-98.0,-1142.0,-156.0,-2322.0,-182.0,85.0
872,-125.0,-1164.0,-88.0,-2342.0,-337.0,47.0
873,-119.0,-1231.0,-22.0,-2411.0,-509.0,64.0
874,-87.0,-1339.0,47.0,-2457.0,-674.0,135.0
875,-31.0,-1429.0,108.0,-2439.0,-811.0,195.0
876,-3.0,-1463.0,170.0,-2372.0,-902.0,227.0
877,43.0,-1501.0,212.0,-2304.0,-972.0,266.0
878,109.0,-1422.0,252.0,-2212.0,-1005.0,310.0
879,154.0,-1350.0,301.0,-2207.0,-990.0,325.0
880,302.0,-1500.0,310.0,-2283.0,-944.0,355.0
881,338.0,-1568.0,362.0,-2183.0,-777.0,400.0
882,352.0,-1450.0,395.0,-1963.0,-581.0,390.0
883,360.0,-1342.0,377.0,-1819.0,-387.0,356.0
884,317.0,-1237.0,382.0,-1734.0,-203.0,342.0
885,270.0,-1205.0,432.0,-1684.0,-61.0,302.0
886,34.0,-928.0,79.0,-33.0,-245.0,-66.0
887,50.0,-972.0,75.0,8.0,-212.0,-41.0
888,31.0,-941.0,76.0,101.0,-156.0,-51.0
889,7.0,-895.0,52.0,179.0,-107.0,-48.0
890,-13.0,-858.0,-19.0,225.0,-77.0,-45.0
891,8.0,-806.0,-86.0,234.0,-75.0,-71.0
892,23.0,-867.0,-120.0,197.0,-59.0,-95.0
893,40.0,-876.0,-144.0,211.0,-40.0,-94.0
894,68.0,-880.0,-152.0,224.0,-13.0,-103.0
895,83.0,-929.0,-149.0,219.0,34.0,-123.0
896,52.0,-947.0,-129.0,287.0,128.0,-153.0
897,92.0,-1058.0,313.0,1374.0,185.0,-156.0
898,138.0,-1028.0,159.0,1296.0,27.0,-182.0
899,45.0,-1004.0,-7.0,1252.0,-67.0,-147.0
900,18.0,-1017.0,-83.0,1218.0,-216.0,-130.0
901,37.0,-1023.0,-76.0,1211.0,-363.0,-126.0
902,56.0,-958.0,-88.0,1221.0,-447.0,-140.0
903,37.0,-949.0,-136.0,1202.0,-470.0,-151.0
904,70.0,-970.0,-68.0,1170.0,-510.0,-126.0
905,173.0,-941.0,33.0,1147.0,-508.0,-106.0
906,171.0,-906.0,67.0,1108.0,-354.0,-119.0
907,176.0,-909.0,92.0,1041.0,-145.0,-148.0
908,192.0,-926.0,123.0,957.0,74.0,-182.0
909,119.0,-951.0,124.0,862.0,306.0,-221.0
910,66.0,-1047.0,45.0,652.0,298.0,-332.0
911,87.0,-941.0,258.0,291.0,79.0,-236.0
912,24.0,-967.0,264.0,260.0,109.0,-259.0
913,58.0,-986.0,233.0,231.0,90.0,-306.0
914,94.0,-980.0,241.0,218.0,78.0,-335.0
915,136.0,-990.0,221.0,200.0,77.0,-335.0
916,108.0,-961.0,218.0,197.0,85.0,-305.0
917,120.0,-936.0,246.0,197.0,65.0,-275.0
918,128.0,-932.0,251.0,179.0,54.0,-242.0
919,162.0,-932.0,238.0,161.0,36.0,-203.0
920,164.0,-939.0,228.0,146.0,30.0,-150.0
921,118.0,-934.0,243.0,137.0,37.0,-102.0
922,119.0,-931.0,254.0,128.0,27.0,-80.0
923,134.0,-922.0,255.0,112.0,23.0,-66.0
924,109.0,-923.0,266.0,92.0,38.0,-51.0
925,106.0,-928.0,257.0,67.0,46.0,-52.0
926,105.0,-939.0,261.0,-68.0,127.0,22.0
927,98.0,-954.0,250.0,79.0,118.0,10.0
928,103.0,-946.0,255.0,81.0,112.0,5.0
929,112.0,-957.0,241.0,77.0,118.0,0.0
930,118.0,-962.0,247.0,81.0,122.0,4.0
931,111.0,-953.0,259.0,87.0,125.0,9.0
932,98.0,-956.0,262.0,78.0,130.0,8.0
933,90.0,-964.0,254.0,67.0,127.0,2.0
934,96.0,-957.0,255.0,60.0,119.0,-7.0
935,86.0,-938.0,267.0,55.0,112.0,-13.0
936,63.0,-941.0,265.0,41.0,113.0,-24.0
937,83.0,-941.0,266.0,25.0,102.0,-52.0
938,129.0,-1009.0,259.0,228.0,160.0,-15.0
939,66.0,-987.0,340.0,577.0,80.0,-110.0
940,52.0,-965.0,355.0,596.0,68.0,-128.0
941,35.0,-1001.0,360.0,602.0,39.0,-148.0
942,66.0,-932.0,357.0,651.0,-17.0,-176.0
943,36.0,-951.0,347.0,644.0,-29.0,-189.0
944,89.0,-939.0,347.0,642.0,-61.0,-193.0
945,129.0,-982.0,352.0,632.0,-75.0,-202.0
946,197.0,-984.0,350.0,629.0,-70.0,-218.0
947,184.0,-1054.0,350.0,630.0,-15.0,-189.0
948,409.0,-1283.0,427.0,1492.0,221.0,-613.0
949,400.0,-1382.0,521.0,1571.0,325.0,-689.0
950,341.0,-1418.0,513.0,1721.0,408.0,-730.0
951,304.0,-1422.0,398.0,1875.0,461.0,-735.0
952,223.0,-1392.0,334.0,2003.0,505.0,-730.0
953,201.0,-1429.0,347.0,2069.0,466.0,-771.0
954,214.0,-1442.0,375.0,2181.0,437.0,-789.0
955,230.0,-1351.0,423.0,2334.0,432.0,-780.0
956,218.0,-1243.0,474.0,2426.0,451.0,-765.0
957,198.0,-1163.0,488.0,2448.0,448.0,-757.0
958,172.0,-1104.0,457.0,2441.0,442.0,-742.0
959,73.0,-253.0,-346.0,-1229.0,-43.0,324.0
960,288.0,-1753.0,470.0,-3661.0,-732.0,654.0
961,318.0,-1846.0,554.0,-3556.0,-673.0,669.0
962,365.0,-1843.0,639.0,-3399.0,-559.0,673.0
963,405.0,-1772.0,711.0,-3243.0,-399.0,684.0
964,437.0,-1695.0,752.0,-3112.0,-234.0,725.0
965,427.0,-1610.0,799.0,-2989.0,-74.0,754.0
966,496.0,-1630.0,810.0,-2878.0,34.0,733.0
967,551.0,-1564.0,828.0,-2693.0,143.0,651.0
968,575.0,-1515.0,840.0,-2506.0,269.0,507.0
969,520.0,-1405.0,925.0,-2298.0,394.0,329.0
970,376.0,-1395.0,1009.0,-2087.0,511.0,142.0
971,-11.0,-1018.0,-136.0,430.0,-357.0,-107.0
972,104.0,-968.0,245.0,1179.0,224.0,-247.0
973,65.0,-966.0,66.0,1063.0,255.0,-301.0
974,72.0,-970.0,-28.0,972.0,230.0,-322.0
975,74.0,-977.0,17.0,903.0,207.0,-319.0
976,58.0,-998.0,43.0,841.0,210.0,-330.0
977,39.0,-1006.0,-11.0,804.0,235.0,-371.0
978,28.0,-1018.0,-44.0,803.0,237.0,-414.0
979,78.0,-1023.0,-40.0,830.0,195.0,-442.0
980,94.0,-1013.0,-9.0,865.0,165.0,-435.0
981,78.0,-1018.0,1.0,888.0,130.0,-417.0
982,64.0,-1036.0,-23.0,913.0,72.0,-408.0
983,54.0,-1051.0,-19.0,957.0,-4.0,-406.0
984,82.0,-1055.0,0.0,1013.0,-96.0,-418.0
985,115.0,-1067.0,-16.0,1073.0,-159.0,-435.0
986,77.0,-964.0,231.0,269.0,139.0,-151.0
987,64.0,-967.0,221.0,251.0,136.0,-174.0
988,70.0,-971.0,220.0,242.0,125.0,-202.0
989,71.0,-983.0,212.0,236.0,115.0,-226.0
990,125.0,-968.0,200.0,239.0,86.0,-242.0
991,109.0,-922.0,258.0,227.0,92.0,-201.0
992,108.0,-932.0,240.0,192.0,97.0,-202.0
993,81.0,-940.0,251.0,169.0,114.0,-212.0
994,114.0,-944.0,249.0,138.0,116.0,-238.0
995,108.0,-943.0,246.0,113.0,136.0,-249.0
996,139.0,-942.0,235.0,95.0,133.0,-243.0
997,127.0,-965.0,221.0,86.0,132.0,-211.0
998,176.0,-964.0,203.0,90.0,102.0,-177.0
999,160.0,-954.0,210.0,104.0,82.0,-107.0
1000,133.0,-940.0,261.0,30.0,71.0,-74.0
1001,135.0,-956.0,242.0,-9.0,97.0,-5.0
1002,111.0,-928.0,266.0,-4.0,100.0,5.0
1003,102.0,-937.0,265.0,-12.0,99.0,1.0
1004,124.0,-953.0,247.0,-20.0,95.0,-9.0
1005,127.0,-945.0,254.0,-18.0,98.0,-6.0
1006,112.0,-941.0,261.0,-20.0,107.0,-3.0
1007,128.0,-960.0,246.0,-22.0,111.0,-9.0
1008,129.0,-968.0,240.0,-17.0,118.0,-7.0
1009,125.0,-966.0,238.0,-7.0,122.0,0.0
1010,107.0,-951.0,265.0,1.0,122.0,5.0
1011,109.0,-954.0,268.0,-5.0,118.0,2.0
1012,111.0,-983.0,251.0,127.0,138.0,35.0
1013,92.0,-1035.0,281.0,313.0,181.0,-33.0
1014,69.0,-1198.0,370.0,1220.0,12.0,-145.0
1015,51.0,-1185.0,401.0,1227.0,-5.0,-247.0
1016,51.0,-1089.0,399.0,1221.0,-20.0,-362.0
1017,-18.0,-1199.0,399.0,1173.0,8.0,-395.0
1018,-47.0,-1147.0,409.0,1236.0,-19.0,-421.0
1019,-14.0,-1113.0,408.0,1274.0,-71.0,-427.0
1020,34.0,-1088.0,399.0,1303.0,-114.0,-442.0
1021,105.0,-1082.0,384.0,1324.0,-134.0,-457.0
1022,183.0,-1047.0,378.0,1356.0,-136.0,-478.0
1023,241.0,-1071.0,376.0,1357.0,-98.0,-507.0
1024,285.0,-1081.0,380.0,1389.0,-36.0,-502.0
1025,160.0,-963.0,487.0,2072.0,619.0,-710.0
1026,330.0,-274.0,-362.0,-456.0,-193.0,629.0
1027,-57.0,-71.0,-287.0,-826.0,137.0,619.0
1028,-62.0,-658.0,-194.0,-1423.0,117.0,534.0
1029,229.0,-923.0,-149.0,-1324.0,-94.0,453.0
1030,-99.0,-436.0,-28.0,-827.0,121.0,417.0
1031,-126.0,-98.0,-41.0,-895.0,-8.0,387.0
1032,-129.0,-208.0,-113.0,-1364.0,-109.0,388.0
1033,-141.0,-372.0,-165.0,-1693.0,-205.0,487.0
1034,-104.0,-408.0,-172.0,-1848.0,-334.0,585.0
1035,-33.0,-486.0,-148.0,-2017.0,-409.0,610.0
1036,4.0,-550.0,-95.0,-2132.0,-415.0,577.0
1037,75.0,-1461.0,496.0,-3124.0,-54.0,606.0
1038,86.0,-1468.0,499.0,-3037.0,-150.0,582.0
1039,132.0,-1437.0,470.0,-2953.0,-262.0,562.0
1040,211.0,-1424.0,425.0,-2892.0,-358.0,564.0
1041,317.0,-1404.0,383.0,-2839.0,-406.0,564.0
1042,373.0,-1371.0,372.0,-2804.0,-375.0,519.0
1043,388.0,-1361.0,377.0,-2799.0,-280.0,454.0
1044,370.0,-1390.0,391.0,-2804.0,-142.0,419.0
1045,315.0,-1425.0,419.0,-2787.0,25.0,399.0
1046,234.0,-1449.0,448.0,-2735.0,187.0,371.0
1047,8.0,-1122.0,526.0,-901.0,394.0,45.0
1048,55.0,-1080.0,467.0,-725.0,346.0,42.0
1049,109.0,-1041.0,387.0,-570.0,313.0,30.0
1050,110.0,-975.0,301.0,-431.0,309.0,8.0
1051,49.0,-915.0,226.0,-342.0,301.0,-24.0
1052,3.0,-945.0,132.0,-305.0,246.0,-38.0
1053,-24.0,-935.0,64.0,-238.0,152.0,-18.0
1054,-67.0,-921.0,42.0,-177.0,48.0,-11.0
1055,-39.0,-941.0,25.0,-131.0,-84.0,-20.0
1056,-1.0,-938.0,25.0,-69.0,-192.0,-22.0
1057,11.0,-958.0,28.0,-14.0,-261.0,-34.0
1058,17.0,-1077.0,-61.0,356.0,-777.0,-62.0
1059,12.0,-1198.0,-80.0,545.0,-809.0,-111.0
1060,104.0,-855.0,-44.0,842.0,-852.0,-202.0
1061,71.0,-938.0,-80.0,782.0,-758.0,-239.0
1062,94.0,-944.0,-108.0,807.0,-696.0,-279.0
1063,71.0,-1025.0,-179.0,842.0,-586.0,-301.0
1064,72.0,-1144.0,-330.0,949.0,-470.0,-318.0
1065,72.0,-1355.0,-538.0,1100.0,-364.0,-324.0
1066,256.0,-866.0,41.0,1350.0,-348.0,-407.0
1067,272.0,-864.0,123.0,1244.0,-177.0,-351.0
1068,274.0,-949.0,132.0,1066.0,40.0,-300.0
1069,113.0,-963.0,142.0,952.0,283.0,-264.0
1070,69.0,-983.0,125.0,883.0,326.0,-282.0
1071,117.0,-979.0,106.0,842.0,266.0,-275.0
1072,79.0,-990.0,76.0,807.0,256.0,-224.0
1073,-2.0,-989.0,117.0,787.0,247.0,-219.0
1074,36.0,-947.0,181.0,764.0,169.0,-278.0
1075,117.0,-923.0,208.0,699.0,88.0,-314.0
1076,132.0,-921.0,200.0,619.0,71.0,-284.0
1077,133.0,-968.0,186.0,53.0,158.0,-129.0
1078,90.0,-958.0,239.0,142.0,22.0,8.0
1079,102.0,-959.0,235.0,131.0,21.0,-8.0
1080,123.0,-959.0,231.0,123.0,18.0,-15.0
1081,102.0,-953.0,239.0,112.0,31.0,-16.0
1082,93.0,-954.0,245.0,99.0,34.0,-25.0
1083,104.0,-960.0,237.0,82.0,30.0,-38.0
1084,115.0,-951.0,242.0,72.0,27.0,-45.0
1085,119.0,-953.0,242.0,59.0,30.0,-45.0
1086,127.0,-961.0,234.0,45.0,34.0,-43.0
1087,129.0,-960.0,230.0,38.0,38.0,-33.0
1088,104.0,-958.0,233.0,35.0,39.0,-21.0
1089,115.0,-962.0,232.0,8.0,29.0,-1.0
1090,122.0,-986.0,231.0,16.0,38.0,7.0
1091,126.0,-980.0,227.0,20.0,42.0,18.0
1092,127.0,-970.0,232.0,31.0,40.0,32.0
1093,127.0,-968.0,235.0,42.0,44.0,47.0
1094,125.0,-968.0,237.0,51.0,49.0,58.0
1095,110.0,-980.0,237.0,60.0,58.0,67.0
1096,109.0,-992.0,233.0,72.0,62.0,65.0
1097,124.0,-982.0,236.0,89.0,62.0,67.0
1098,120.0,-977.0,240.0,101.0,76.0,77.0
1099,119.0,-992.0,238.0,111.0,89.0,84.0
1100,122.0,-990.0,234.0,128.0,102.0,90.0
1101,40.0,-1047.0,300.0,288.0,-45.0,123.0
1102,87.0,-1198.0,319.0,922.0,-266.0,372.0
1103,104.0,-1211.0,315.0,976.0,-263.0,380.0
1104,46.0,-1192.0,338.0,1041.0,-250.0,391.0
1105,11.0,-1281.0,326.0,1086.0,-233.0,424.0
1106,0.0,-1240.0,322.0,1181.0,-194.0,517.0
1107,71.0,-1064.0,286.0,1261.0,-228.0,649.0
1108,94.0,-998.0,302.0,1209.0,-251.0,715.0
1109,139.0,-904.0,323.0,1147.0,-304.0,729.0
1110,60.0,-774.0,433.0,1079.0,-289.0,750.0
1111,-138.0,-629.0,532.0,992.0,-291.0,816.0
1112,-341.0,-513.0,553.0,867.0,-414.0,938.0
1113,-170.0,-816.0,-285.0,-710.0,-3962.0,1765.0
1114,369.0,-992.0,-90.0,-743.0,-4617.0,1813.0
1115,416.0,-995.0,-47.0,-782.0,-4599.0,1712.0
1116,528.0,-962.0,-16.0,-801.0,-4576.0,1591.0
1117,610.0,-975.0,46.0,-835.0,-4458.0,1485.0
1118,674.0,-1038.0,118.0,-870.0,-4254.0,1380.0
1119,715.0,-992.0,214.0,-838.0,-3988.0,1249.0
1120,714.0,-1028.0,286.0,-863.0,-3661.0,1100.0
1121,680.0,-1101.0,368.0,-872.0,-3299.0,1001.0
1122,610.0,-1129.0,460.0,-816.0,-2926.0,972.0
1123,574.0,-1083.0,538.0,-726.0,-2614.0,955.0
1124,582.0,-1088.0,567.0,-700.0,-2372.0,926.0
1125,316.0,-867.0,268.0,529.0,-57.0,-330.0
1126,-158.0,-1036.0,312.0,13.0,277.0,-148.0
1127,-89.0,-996.0,312.0,-13.0,197.0,-285.0
1128,-36.0,-1009.0,287.0,-44.0,132.0,-376.0
1129,32.0,-1011.0,265.0,-46.0,86.0,-431.0
1130,105.0,-990.0,278.0,-32.0,49.0,-436.0
1131,161.0,-1001.0,272.0,-35.0,31.0,-390.0
1132,217.0,-972.0,254.0,-31.0,36.0,-311.0
1133,145.0,-946.0,286.0,-21.0,83.0,-209.0
1134,102.0,-998.0,275.0,-34.0,110.0,-164.0
1135,98.0,-986.0,248.0,-20.0,115.0,-149.0
1136,65.0,-927.0,285.0,8.0,111.0,-130.0
1137,63.0,-918.0,287.0,-21.0,-66.0,-110.0
1138,130.0,-955.0,259.0,21.0,-45.0,36.0
1139,139.0,-944.0,263.0,24.0,-40.0,46.0
1140,133.0,-953.0,270.0,21.0,-26.0,58.0
1141,125.0,-960.0,260.0,18.0,-13.0,65.0
1142,119.0,-953.0,253.0,25.0,-6.0,71.0
1143,135.0,-928.0,262.0,37.0,-10.0,81.0
1144,141.0,-903.0,272.0,39.0,-7.0,98.0
1145,121.0,-921.0,275.0,29.0,10.0,115.0
1146,126.0,-949.0,268.0,19.0,15.0,122.0
1147,137.0,-975.0,244.0,22.0,24.0,129.0
1148,93.0,-968.0,261.0,40.0,42.0,145.0
1149,117.0,-975.0,277.0,-22.0,72.0,154.0
1150,-33.0,-1091.0,344.0,-289.0,-97.0,404.0
1151,-283.0,-871.0,-280.0,-303.0,-3914.0,557.0
1152,-183.0,-874.0,-288.0,-296.0,-4012.0,541.0
1153,-89.0,-825.0,-284.0,-271.0,-4052.0,494.0
1154,58.0,-814.0,-286.0,-291.0,-4047.0,468.0
1155,214.0,-802.0,-266.0,-305.0,-3969.0,462.0
1156,357.0,-812.0,-232.0,-293.0,-3829.0,425.0
1157,475.0,-829.0,-146.0,-239.0,-3658.0,340.0
1158,625.0,-854.0,-14.0,-147.0,-3472.0,235.0
1159,814.0,-1001.0,171.0,-23.0,-3251.0,92.0
1160,1015.0,-1128.0,375.0,205.0,-2970.0,-87.0
1161,1175.0,-1060.0,611.0,531.0,-2570.0,-226.0
1162,1158.0,-805.0,913.0,857.0,-1256.0,127.0
1163,61.0,-999.0,241.0,-78.0,39.0,-83.0
1164,44.0,-1009.0,224.0,-70.0,54.0,-104.0
1165,40.0,-983.0,237.0,-51.0,52.0,-125.0
1166,67.0,-963.0,257.0,-47.0,35.0,-146.0
1167,87.0,-955.0,249.0,-58.0,32.0,-150.0
1168,87.0,-951.0,248.0,-72.0,39.0,-135.0
1169,92.0,-953.0,252.0,-79.0,42.0,-116.0
1170,109.0,-953.0,248.0,-87.0,46.0,-101.0
1171,121.0,-947.0,240.0,-93.0,57.0,-76.0
1172,96.0,-945.0,244.0,-98.0,79.0,-43.0
1173,59.0,-945.0,239.0,-102.0,96.0,-25.0
1174,87.0,-961.0,248.0,-91.0,69.0,7.0
1175,84.0,-966.0,244.0,-99.0,78.0,18.0
1176,74.0,-979.0,231.0,-106.0,90.0,24.0
1177,89.0,-992.0,210.0,-99.0,88.0,25.0
1178,91.0,-1003.0,206.0,-62.0,87.0,30.0
1179,112.0,-1017.0,219.0,-25.0,83.0,40.0
1180,108.0,-1018.0,200.0,0.0,99.0,61.0
1181,55.0,-1036.0,188.0,54.0,133.0,73.0
1182,28.0,-1032.0,216.0,123.0,122.0,58.0
1183,-143.0,-1047.0,-300.0,1265.0,880.0,-748.0
1184,-521.0,-561.0,-707.0,1017.0,783.0,-396.0
1185,-230.0,-733.0,-927.0,369.0,216.0,-110.0
1186,-216.0,-863.0,-1017.0,-2.0,51.0,116.0
1187,-66.0,-644.0,-1097.0,-12.0,-110.0,264.0
1188,135.0,-330.0,-1191.0,-229.0,-156.0,183.0
1189,123.0,-438.0,-1246.0,-716.0,27.0,270.0
1190,79.0,-435.0,-1219.0,-1026.0,180.0,365.0
1191,-20.0,-425.0,-1161.0,-1299.0,319.0,389.0
1192,-132.0,-476.0,-1067.0,-1604.0,391.0,444.0
1193,-156.0,-578.0,-952.0,-1887.0,344.0,506.0
1194,352.0,-1492.0,478.0,-2209.0,-456.0,632.0
1195,394.0,-1456.0,495.0,-2038.0,-334.0,591.0
1196,446.0,-1324.0,504.0,-1846.0,-226.0,509.0
1197,447.0,-1213.0,523.0,-1721.0,-116.0,397.0
1198,427.0,-1213.0,546.0,-1664.0,-11.0,277.0
1199,368.0,-1249.0,549.0,-1559.0,100.0,207.0
1200,291.0,-1204.0,565.0,-1367.0,210.0,155.0
1201,211.0,-1140.0,585.0,-1180.0,296.0,85.0
1202,123.0,-1081.0,563.0,-1031.0,362.0,14.0
1203,66.0,-893.0,-67.0,-23.0,-275.0,-155.0
1204,-88.0,-838.0,-174.0,98.0,208.0,-121.0
1205,-118.0,-913.0,-126.0,138.0,254.0,-66.0
1206,-102.0,-971.0,-100.0,156.0,230.0,-34.0
1207,-91.0,-953.0,-56.0,234.0,217.0,-22.0
1208,-119.0,-914.0,17.0,301.0,210.0,-37.0
1209,-144.0,-1012.0,63.0,325.0,195.0,-9.0
1210,-167.0,-1002.0,127.0,449.0,156.0,42.0
1211,-165.0,-975.0,196.0,568.0,102.0,36.0
1212,-188.0,-1034.0,265.0,652.0,59.0,49.0
1213,-204.0,-1046.0,311.0,788.0,-4.0,111.0
1214,-140.0,-953.0,257.0,936.0,-95.0,104.0
1215,159.0,135.0,91.0,906.0,-149.0,-403.0
1216,44.0,-935.0,122.0,1371.0,-349.0,-282.0
1217,143.0,-986.0,142.0,494.0,42.0,-219.0
1218,146.0,-989.0,115.0,476.0,33.0,-206.0
1219,167.0,-978.0,140.0,481.0,14.0,-175.0
1220,160.0,-976.0,133.0,459.0,7.0,-127.0
1221,179.0,-985.0,106.0,443.0,2.0,-83.0
1222,170.0,-968.0,133.0,458.0,12.0,-30.0
1223,177.0,-927.0,176.0,460.0,24.0,11.0
1224,179.0,-925.0,189.0,423.0,59.0,41.0
1225,123.0,-952.0,181.0,376.0,112.0,64.0
1226,89.0,-945.0,211.0,356.0,114.0,63.0
1227,88.0,-952.0,209.0,324.0,104.0,29.0
1228,92.0,-961.0,197.0,289.0,105.0,-12.0
1229,69.0,-964.0,214.0,258.0,114.0,-52.0
1230,108.0,-966.0,200.0,224.0,102.0,-98.0
1231,99.0,-967.0,207.0,199.0,105.0,-116.0
1232,143.0,-970.0,203.0,82.0,58.0,-104.0
1233,160.0,-966.0,205.0,85.0,62.0,-93.0
1234,151.0,-963.0,206.0,86.0,75.0,-73.0
1235,143.0,-958.0,208.0,88.0,87.0,-56.0
1236,140.0,-939.0,231.0,90.0,92.0,-44.0
1237,145.0,-941.0,230.0,77.0,98.0,-36.0
1238,117.0,-943.0,239.0,61.0,108.0,-29.0
1239,105.0,-947.0,239.0,43.0,110.0,-41.0
1240,108.0,-967.0,238.0,24.0,108.0,-65.0
1241,115.0,-997.0,197.0,11.0,115.0,-99.0
1242,128.0,-964.0,227.0,24.0,110.0,-124.0
1243,126.0,-978.0,220.0,9.0,145.0,-178.0
1244,158.0,-954.0,242.0,155.0,96.0,-14.0
1245,155.0,-946.0,257.0,160.0,99.0,-5.0
1246,147.0,-952.0,254.0,158.0,104.0,-2.0
1247,147.0,-946.0,262.0,159.0,109.0,-6.0
1248,146.0,-950.0,262.0,153.0,117.0,-14.0
1249,140.0,-959.0,260.0,145.0,128.0,-23.0
1250,147.0,-965.0,253.0,138.0,133.0,-32.0
1251,176.0,-961.0,253.0,139.0,129.0,-30.0
1252,164.0,-953.0,263.0,143.0,141.0,-13.0
1253,160.0,-965.0,259.0,136.0,154.0,-3.0
1254,158.0,-967.0,259.0,136.0,165.0,-1.0
1255,157.0,-975.0,257.0,136.0,178.0,3.0
1256,132.0,-975.0,243.0,141.0,189.0,7.0
1257,104.0,-943.0,252.0,152.0,173.0,17.0
1258,130.0,-989.0,296.0,297.0,194.0,-160.0
1259,122.0,-1034.0,341.0,488.0,68.0,-125.0
1260,243.0,-1015.0,394.0,726.0,-54.0,-276.0
1261,223.0,-1024.0,409.0,744.0,-12.0,-286.0
1262,210.0,-1074.0,412.0,767.0,10.0,-290.0
1263,259.0,-1076.0,413.0,820.0,11.0,-301.0
1264,251.0,-1115.0,415.0,863.0,59.0,-338.0
1265,225.0,-1121.0,424.0,923.0,115.0,-391.0
1266,228.0,-1150.0,414.0,979.0,162.0,-447.0
1267,237.0,-1111.0,428.0,1054.0,191.0,-504.0
1268,208.0,-1199.0,438.0,1081.0,209.0,-572.0
1269,251.0,-1244.0,437.0,1163.0,193.0,-619.0
1270,306.0,-1253.0,420.0,1280.0,208.0,-669.0
1271,434.0,-771.0,59.0,1669.0,198.0,-408.0
1272,120.0,-401.0,-502.0,-1783.0,367.0,748.0
1273,136.0,-490.0,-424.0,-2106.0,472.0,815.0
1274,109.0,-628.0,-344.0,-2373.0,548.0,866.0
1275,66.0,-710.0,-284.0,-2537.0,551.0,889.0
1276,-21.0,-753.0,-195.0,-2676.0,473.0,887.0
1277,-88.0,-900.0,-134.0,-2852.0,283.0,872.0
1278,-108.0,-999.0,-85.0,-2951.0,0.0,851.0
1279,-57.0,-1073.0,-45.0,-3017.0,-319.0,810.0
1280,81.0,-1151.0,-24.0,-3079.0,-619.0,741.0
1281,231.0,-1215.0,5.0,-3118.0,-801.0,661.0
1282,324.0,-1255.0,47.0,-3150.0,-837.0,605.0
1283,374.0,-1571.0,524.0,-2809.0,190.0,618.0
1284,306.0,-1522.0,558.0,-2695.0,190.0,507.0
1285,231.0,-1500.0,600.0,-2615.0,146.0,397.0
1286,172.0,-1554.0,651.0,-2534.0,77.0,328.0
1287,170.0,-1519.0,715.0,-2347.0,-22.0,292.0
1288,182.0,-1375.0,787.0,-2136.0,-110.0,233.0
1289,304.0,-1333.0,810.0,-2009.0,-176.0,179.0
1290,447.0,-1338.0,792.0,-1867.0,-144.0,160.0
1291,451.0,-1244.0,780.0,-1664.0,30.0,107.0
1292,215.0,-1098.0,790.0,-1372.0,451.0,-45.0
1293,34.0,-1115.0,813.0,-1267.0,577.0,-28.0
1294,-113.0,-1116.0,803.0,-1089.0,583.0,26.0
1295,-159.0,-1055.0,755.0,-858.0,466.0,73.0
1296,-180.0,-992.0,682.0,-662.0,309.0,71.0
1297,-193.0,-973.0,606.0,-510.0,128.0,41.0
1298,7.0,-871.0,264.0,73.0,-619.0,3.0
1299,77.0,-942.0,84.0,22.0,227.0,-96.0
1300,-6.0,-1134.0,-530.0,-265.0,-111.0,-108.0
1301,40.0,-1549.0,-956.0,10.0,-38.0,-247.0
1302,92.0,-1811.0,-1368.0,665.0,107.0,-331.0
1303,-29.0,-1959.0,-1649.0,1409.0,350.0,-310.0
1304,-73.0,-1688.0,-1304.0,2268.0,462.0,-358.0
1305,-94.0,-509.0,-155.0,2626.0,440.0,-377.0
1306,167.0,-1243.0,269.0,1574.0,334.0,-322.0
1307,226.0,-972.0,733.0,1404.0,321.0,-294.0
1308,124.0,-972.0,485.0,1120.0,403.0,-351.0
1309,61.0,-1009.0,49.0,903.0,421.0,-401.0
1310,31.0,-1049.0,-181.0,781.0,370.0,-413.0
1311,13.0,-1012.0,-180.0,780.0,292.0,-419.0
1312,48.0,-975.0,-119.0,804.0,225.0,-436.0
1313,114.0,-948.0,-69.0,817.0,176.0,-439.0
1314,139.0,-939.0,-10.0,813.0,147.0,-416.0
1315,112.0,-960.0,90.0,584.0,180.0,-852.0
1316,212.0,-933.0,109.0,542.0,74.0,-793.0
1317,242.0,-920.0,117.0,502.0,45.0,-681.0
1318,316.0,-892.0,148.0,463.0,16.0,-552.0
1319,278.0,-910.0,148.0,406.0,27.0,-400.0
1320,254.0,-940.0,112.0,364.0,22.0,-289.0
1321,250.0,-961.0,82.0,355.0,-1.0,-208.0
1322,264.0,-962.0,81.0,366.0,-11.0,-136.0
1323,255.0,-951.0,97.0,375.0,11.0,-72.0
1324,140.0,-914.0,214.0,561.0,54.0,274.0
1325,159.0,-917.0,224.0,434.0,52.0,255.0
1326,151.0,-928.0,219.0,376.0,74.0,233.0
1327,117.0,-942.0,211.0,328.0,90.0,203.0
1328,134.0,-940.0,209.0,293.0,76.0,177.0
1329,134.0,-935.0,217.0,266.0,61.0,161.0
1330,130.0,-953.0,206.0,228.0,55.0,142.0
1331,123.0,-953.0,229.0,205.0,55.0,114.0
1332,121.0,-967.0,218.0,170.0,58.0,77.0
1333,172.0,-957.0,211.0,71.0,97.0,18.0
1334,153.0,-957.0,216.0,78.0,102.0,35.0
1335,139.0,-970.0,218.0,77.0,104.0,32.0
1336,143.0,-987.0,218.0,75.0,108.0,16.0
1337,154.0,-988.0,208.0,76.0,109.0,1.0
1338,148.0,-972.0,228.0,87.0,114.0,-5.0
1339,124.0,-986.0,237.0,86.0,126.0,-21.0
1340,170.0,-990.0,214.0,87.0,116.0,-45.0
1341,186.0,-982.0,214.0,105.0,125.0,-42.0
1342,174.0,-988.0,222.0,119.0,147.0,-33.0
1343,169.0,-995.0,213.0,132.0,165.0,-35.0
1344,133.0,-969.0,230.0,156.0,191.0,-54.0
1345,109.0,-926.0,269.0,95.0,178.0,2.0
1346,141.0,-884.0,276.0,52.0,121.0,18.0
1347,145.0,-993.0,260.0,30.0,122.0,27.0
1348,161.0,-1027.0,243.0,67.0,125.0,26.0
1349,147.0,-985.0,279.0,129.0,117.0,42.0
1350,160.0,-1001.0,267.0,128.0,125.0,40.0
1351,177.0,-982.0,269.0,156.0,133.0,39.0
1352,153.0,-957.0,279.0,183.0,157.0,37.0
1353,68.0,-974.0,291.0,188.0,181.0,25.0
1354,99.0,-997.0,281.0,194.0,145.0,-1.0
1355,136.0,-1000.0,282.0,216.0,118.0,-13.0
1356,150.0,-1019.0,287.0,233.0,110.0,-5.0
1357,180.0,-1072.0,284.0,271.0,105.0,16.0
1358,128.0,-990.0,378.0,808.0,-76.0,-266.0
1359,130.0,-1034.0,378.0,791.0,-56.0,-252.0
1360,140.0,-1023.0,383.0,816.0,-47.0,-252.0
1361,154.0,-1026.0,384.0,833.0,-35.0,-252.0
1362,175.0,-1027.0,383.0,855.0,-26.0,-266.0
1363,193.0,-1023.0,385.0,874.0,-11.0,-283.0
1364,202.0,-1032.0,391.0,891.0,5.0,-307.0
1365,211.0,-1045.0,395.0,916.0,24.0,-339.0
1366,214.0,-1078.0,400.0,951.0,49.0,-378.0
1367,238.0,-1079.0,403.0,1010.0,76.0,-423.0
1368,262.0,-1084.0,403.0,1068.0,124.0,-477.0
1369,246.0,-803.0,374.0,1469.0,174.0,-512.0
1370,-109.0,-442.0,-367.0,-1164.0,42.0,457.0
1371,-17.0,-461.0,-317.0,-1372.0,-69.0,513.0
1372,60.0,-529.0,-266.0,-1574.0,-122.0,596.0
1373,118.0,-581.0,-231.0,-1739.0,-133.0,642.0
1374,141.0,-595.0,-193.0,-1887.0,-137.0,650.0
1375,141.0,-675.0,-157.0,-2072.0,-150.0,641.0
1376,120.0,-761.0,-102.0,-2219.0,-187.0,624.0
1377,93.0,-824.0,-40.0,-2316.0,-245.0,596.0
1378,70.0,-889.0,5.0,-2388.0,-323.0,573.0
1379,131.0,-1309.0,610.0,-2073.0,-176.0,470.0
1380,113.0,-1362.0,582.0,-1979.0,-211.0,459.0
1381,89.0,-1314.0,587.0,-1864.0,-239.0,456.0
1382,94.0,-1296.0,578.0,-1757.0,-284.0,468.0
1383,95.0,-1181.0,572.0,-1638.0,-316.0,466.0
1384,130.0,-1129.0,559.0,-1603.0,-348.0,437.0
1385,233.0,-1200.0,522.0,-1607.0,-362.0,393.0
1386,232.0,-1211.0,524.0,-1510.0,-303.0,358.0
1387,239.0,-1131.0,505.0,-1363.0,-245.0,310.0
1388,192.0,-1087.0,482.0,-1274.0,-175.0,252.0
1389,137.0,-1105.0,487.0,-1221.0,-124.0,218.0
1390,108.0,-1108.0,467.0,-1016.0,-100.0,221.0
1391,-5.0,-1002.0,300.0,-77.0,-531.0,127.0
1392,52.0,-980.0,283.0,1.0,-588.0,123.0
1393,67.0,-932.0,278.0,56.0,-614.0,107.0
1394,67.0,-975.0,241.0,65.0,-633.0,77.0
1395,41.0,-995.0,221.0,111.0,-651.0,75.0
1396,18.0,-1011.0,199.0,177.0,-681.0,80.0
1397,42.0,-990.0,156.0,251.0,-743.0,64.0
1398,90.0,-986.0,125.0,309.0,-796.0,38.0
1399,102.0,-973.0,110.0,361.0,-822.0,3.0
1400,70.0,-960.0,101.0,403.0,-840.0,-43.0
1401,50.0,-986.0,77.0,434.0,-877.0,-87.0
1402,-165.0,-1099.0,-46.0,1732.0,-776.0,-663.0
1403,-8.0,-917.0,169.0,1586.0,-835.0,-706.0
1404,243.0,-917.0,247.0,1343.0,-789.0,-671.0
1405,308.0,-904.0,222.0,1180.0,-537.0,-600.0
1406,136.0,-904.0,149.0,1076.0,-258.0,-548.0
1407,-37.0,-966.0,54.0,1018.0,-169.0,-553.0
1408,-65.0,-1021.0,-15.0,1031.0,-282.0,-589.0
1409,-56.0,-1024.0,-8.0,1097.0,-422.0,-601.0
1410,60.0,-974.0,20.0,1141.0,-538.0,-567.0
1411,190.0,-960.0,184.0,822.0,-72.0,-71.0
1412,244.0,-947.0,184.0,778.0,-61.0,22.0
1413,267.0,-931.0,203.0,726.0,-7.0,155.0
1414,247.0,-938.0,167.0,665.0,89.0,293.0
1415,179.0,-902.0,163.0,627.0,183.0,415.0
1416,4.0,-880.0,285.0,573.0,245.0,492.0
1417,-4.0,-874.0,296.0,485.0,192.0,462.0
1418,-58.0,-931.0,243.0,376.0,169.0,369.0
1419,40.0,-999.0,202.0,38.0,106.0,-243.0
1420,18.0,-1004.0,210.0,36.0,112.0,-258.0
1421,41.0,-1006.0,191.0,38.0,97.0,-280.0
1422,85.0,-988.0,184.0,54.0,77.0,-286.0
1423,88.0,-949.0,216.0,71.0,91.0,-201.0
1424,98.0,-939.0,221.0,68.0,94.0,-169.0
1425,62.0,-947.0,231.0,55.0,120.0,-141.0
1426,50.0,-957.0,239.0,38.0,129.0,-136.0
1427,54.0,-962.0,228.0,20.0,129.0,-140.0
1428,61.0,-976.0,217.0,11.0,130.0,-138.0
1429,56.0,-996.0,200.0,13.0,135.0,-133.0
1430,71.0,-977.0,203.0,30.0,118.0,-127.0
1431,132.0,-968.0,198.0,43.0,83.0,-110.0
1432,112.0,-968.0,211.0,27.0,25.0,-42.0
1433,40.0,-942.0,238.0,-16.0,-50.0,-63.0
1434,92.0,-977.0,221.0,29.0,-75.0,-79.0
1435,106.0,-974.0,216.0,26.0,-76.0,-79.0
1436,117.0,-964.0,218.0,26.0,-86.0,-64.0
1437,110.0,-966.0,223.0,21.0,-89.0,-44.0
1438,109.0,-968.0,223.0,14.0,-91.0,-30.0
1439,99.0,-969.0,222.0,9.0,-88.0,-21.0
1440,107.0,-961.0,225.0,5.0,-93.0,-18.0
1441,95.0,-959.0,226.0,-3.0,-90.0,-14.0
1442,80.0,-956.0,231.0,-8.0,-93.0,-16.0
1443,80.0,-960.0,234.0,-14.0,-102.0,-25.0
1444,94.0,-967.0,228.0,-23.0,-109.0,-36.0
1445,69.0,-964.0,228.0,67.0,-154.0,1.0
1446,71.0,-974.0,221.0,69.0,-179.0,-6.0
1447,96.0,-973.0,212.0,74.0,-207.0,-13.0
1448,103.0,-961.0,233.0,75.0,-220.0,-18.0
1449,133.0,-956.0,231.0,67.0,-227.0,-22.0
1450,131.0,-966.0,234.0,50.0,-200.0,-29.0
1451,129.0,-958.0,233.0,37.0,-178.0,-32.0
1452,136.0,-961.0,228.0,26.0,-153.0,-40.0
1453,138.0,-971.0,224.0,15.0,-125.0,-45.0
1454,203.0,-944.0,220.0,10.0,30.0,31.0
1455,61.0,-913.0,328.0,-25.0,136.0,78.0
1456,117.0,-912.0,343.0,-118.0,121.0,62.0
1457,87.0,-985.0,315.0,-240.0,112.0,97.0
1458,32.0,-1028.0,306.0,-316.0,66.0,142.0
1459,-152.0,-982.0,361.0,-356.0,-49.0,320.0
1460,92.0,-989.0,345.0,-442.0,-282.0,333.0
1461,-105.0,-1079.0,289.0,-532.0,-286.0,443.0
1462,-253.0,-1084.0,238.0,-523.0,-511.0,656.0
1463,-363.0,-1053.0,180.0,-498.0,-942.0,908.0
1464,-448.0,-1144.0,136.0,-444.0,-1528.0,1058.0
1465,-368.0,-1247.0,-7.0,-333.0,-2292.0,1120.0
1466,-105.0,-1089.0,-309.0,160.0,-5057.0,747.0
1467,-122.0,-1075.0,-315.0,190.0,-5249.0,718.0
1468,-85.0,-1100.0,-349.0,214.0,-5448.0,724.0
1469,-15.0,-1083.0,-375.0,268.0,-5627.0,732.0
1470,49.0,-1068.0,-400.0,307.0,-5753.0,726.0
1471,34.0,-1052.0,-396.0,331.0,-5829.0,716.0
1472,-3.0,-1029.0,-389.0,347.0,-5900.0,711.0
1473,14.0,-986.0,-401.0,365.0,-6001.0,716.0
1474,-51.0,-937.0,-393.0,359.0,-6062.0,728.0
1475,-67.0,-962.0,-418.0,328.0,-6146.0,765.0
1476,32.0,-956.0,-454.0,339.0,-6250.0,827.0
1477,982.0,-840.0,505.0,836.0,-2210.0,-259.0
1478,808.0,-712.0,464.0,871.0,-1762.0,-89.0
1479,533.0,-725.0,377.0,740.0,-1280.0,157.0
1480,314.0,-879.0,245.0,566.0,-789.0,324.0
1481,55.0,-1058.0,51.0,488.0,-262.0,338.0
1482,-32.0,-1109.0,-60.0,591.0,22.0,208.0
1483,-10.0,-1047.0,49.0,787.0,38.0,59.0
1484,-6.0,-936.0,260.0,850.0,-61.0,9.0
1485,114.0,-972.0,215.0,89.0,-3.0,8.0
1486,95.0,-942.0,253.0,106.0,-26.0,-2.0
1487,123.0,-940.0,256.0,77.0,-44.0,-41.0
1488,146.0,-949.0,239.0,41.0,-45.0,-65.0
1489,114.0,-962.0,239.0,23.0,-26.0,-70.0
1490,93.0,-965.0,242.0,15.0,-27.0,-100.0
1491,98.0,-963.0,246.0,2.0,-44.0,-143.0
1492,120.0,-972.0,226.0,-15.0,-57.0,-182.0
1493,120.0,-951.0,248.0,-14.0,-67.0,-200.0
1494,176.0,-967.0,223.0,-29.0,-71.0,-202.0
1495,201.0,-948.0,226.0,-32.0,-59.0,-191.0
1496,182.0,-992.0,198.0,-36.0,60.0,-36.0
1497,185.0,-989.0,201.0,-16.0,69.0,-29.0
1498,185.0,-989.0,196.0,2.0,79.0,-22.0
1499,195.0,-969.0,203.0,20.0,84.0,-9.0
1500,195.0,-951.0,221.0,28.0,92.0,15.0
1501,165.0,-938.0,231.0,19.0,105.0,38.0
1502,163.0,-944.0,233.0,1.0,106.0,50.0
1503,155.0,-943.0,233.0,-15.0,106.0,53.0
1504,164.0,-952.0,225.0,-93.0,98.0,69.0
1505,171.0,-949.0,223.0,-105.0,98.0,72.0
1506,165.0,-947.0,220.0,-115.0,105.0,81.0
1507,127.0,-954.0,224.0,-119.0,116.0,87.0
1508,127.0,-959.0,203.0,-113.0,110.0,73.0
1509,99.0,-946.0,224.0,-93.0,100.0,57.0
1510,127.0,-957.0,215.0,-93.0,78.0,29.0
1511,133.0,-955.0,212.0,-92.0,73.0,11.0
1512,153.0,-965.0,201.0,7.0,163.0,50.0
1513,149.0,-978.0,213.0,75.0,189.0,60.0
1514,215.0,-1466.0,259.0,393.0,-148.0,-72.0
1515,172.0,-1720.0,292.0,600.0,-115.0,25.0
1516,263.0,-1855.0,241.0,947.0,-76.0,121.0
1517,278.0,-1883.0,266.0,1370.0,38.0,159.0
1518,319.0,-1786.0,211.0,1669.0,169.0,65.0
1519,333.0,-1827.0,223.0,1801.0,228.0,-178.0
1520,322.0,-1880.0,161.0,1882.0,261.0,-361.0
1521,334.0,-1566.0,146.0,2084.0,241.0,-359.0
1522,-79.0,-779.0,-778.0,416.0,-907.0,475.0
1523,339.0,-579.0,-970.0,244.0,-1402.0,594.0
1524,583.0,-170.0,-1090.0,52.0,-1433.0,490.0
1525,693.0,-350.0,-1230.0,-612.0,-1091.0,467.0
1526,591.0,-328.0,-1279.0,-1010.0,-580.0,531.0
1527,478.0,-209.0,-1289.0,-1347.0,-112.0,517.0
1528,284.0,-282.0,-1285.0,-1800.0,318.0,505.0
1529,111.0,-333.0,-1216.0,-2148.0,586.0,525.0
1530,-23.0,-453.0,-1126.0,-2456.0,699.0,529.0
1531,-143.0,-588.0,-994.0,-2690.0,676.0,484.0
1532,-189.0,-763.0,-835.0,-2865.0,508.0,416.0
1533,331.0,-1663.0,427.0,-2575.0,-1178.0,408.0
1534,22.0,-1172.0,675.0,-1129.0,487.0,-119.0
1535,5.0,-863.0,-79.0,58.0,-273.0,-98.0
1536,-21.0,-818.0,-95.0,98.0,-249.0,-82.0
1537,-25.0,-816.0,-97.0,104.0,-237.0,-68.0
1538,0.0,-830.0,-107.0,115.0,-221.0,-66.0
1539,0.0,-834.0,-103.0,147.0,-183.0,-62.0
1540,-7.0,-835.0,-93.0,188.0,-147.0,-63.0
1541,-20.0,-848.0,-132.0,231.0,-115.0,-68.0
1542,-5.0,-807.0,-184.0,273.0,-102.0,-61.0
1543,19.0,-855.0,-223.0,264.0,-92.0,-50.0
1544,26.0,-881.0,-240.0,284.0,-76.0,-47.0
1545,58.0,-866.0,-264.0,316.0,-72.0,-36.0
1546,130.0,-957.0,-255.0,572.0,-339.0,-116.0
1547,32.0,-813.0,453.0,979.0,59.0,23.0
1548,-17.0,-917.0,385.0,771.0,152.0,-105.0
1549,-58.0,-960.0,279.0,646.0,154.0,-226.0
1550,-64.0,-891.0,279.0,591.0,126.0,-345.0
1551,26.0,-818.0,336.0,533.0,54.0,-440.0
1552,151.0,-862.0,285.0,448.0,34.0,-490.0
1553,235.0,-893.0,219.0,395.0,72.0,-494.0
1554,238.0,-842.0,264.0,367.0,111.0,-446.0
1555,166.0,-830.0,274.0,310.0,156.0,-386.0
1556,130.0,-987.0,272.0,-122.0,70.0,-264.0
1557,176.0,-958.0,231.0,-210.0,34.0,-443.0
1558,210.0,-945.0,211.0,-213.0,15.0,-464.0
1559,230.0,-927.0,203.0,-209.0,15.0,-467.0
1560,292.0,-942.0,175.0,-211.0,29.0,-437.0
1561,341.0,-959.0,133.0,-192.0,53.0,-398.0
1562,377.0,-933.0,137.0,-148.0,79.0,-325.0
1563,342.0,-929.0,168.0,-115.0,130.0,-226.0
1564,304.0,-954.0,175.0,-90.0,169.0,-144.0
1565,297.0,-958.0,178.0,-52.0,173.0,-80.0
1566,261.0,-976.0,175.0,-17.0,180.0,-30.0
1567,295.0,-974.0,161.0,22.0,167.0,0.0
1568,300.0,-972.0,157.0,64.0,174.0,46.0
1569,283.0,-931.0,183.0,113.0,177.0,107.0
1570,233.0,-911.0,205.0,138.0,183.0,158.0
1571,301.0,-913.0,180.0,59.0,74.0,92.0
1572,152.0,-941.0,250.0,22.0,148.0,-233.0
1573,163.0,-972.0,226.0,2.0,138.0,-240.0
1574,216.0,-978.0,209.0,14.0,120.0,-237.0
1575,225.0,-1000.0,198.0,45.0,125.0,-204.0
1576,231.0,-968.0,222.0,95.0,126.0,-164.0
1577,210.0,-963.0,236.0,120.0,137.0,-118.0
1578,185.0,-976.0,236.0,133.0,155.0,-94.0
1579,171.0,-981.0,240.0,148.0,161.0,-92.0
1580,175.0,-988.0,236.0,162.0,159.0,-98.0
1581,195.0,-1000.0,207.0,179.0,154.0,-95.0
1582,196.0,-974.0,227.0,224.0,143.0,-75.0
1583,198.0,-927.0,292.0,254.0,162.0,105.0
1584,93.0,-1128.0,354.0,433.0,189.0,-56.0
1585,113.0,-1167.0,361.0,513.0,162.0,-121.0
1586,127.0,-1188.0,369.0,612.0,146.0,-184.0
1587,106.0,-1208.0,376.0,703.0,135.0,-236.0
1588,36.0,-1148.0,405.0,795.0,104.0,-286.0
1589,45.0,-1249.0,400.0,836.0,26.0,-306.0
1590,156.0,-1195.0,387.0,924.0,-82.0,-273.0
1591,191.0,-1192.0,397.0,981.0,-108.0,-266.0
1592,199.0,-1247.0,398.0,1022.0,-95.0,-253.0
1593,210.0,-1208.0,402.0,1107.0,-57.0,-195.0
1594,335.0,-1261.0,392.0,1885.0,445.0,-812.0
1595,336.0,-1325.0,439.0,2077.0,506.0,-951.0
1596,365.0,-1371.0,467.0,2173.0,519.0,-1014.0
1597,352.0,-1378.0,483.0,2286.0,563.0,-1079.0
1598,361.0,-1377.0,475.0,2415.0,618.0,-1148.0
1599,335.0,-1301.0,432.0,2550.0,725.0,-1187.0
1600,255.0,-1154.0,396.0,2637.0,802.0,-1152.0
1601,164.0,-1067.0,383.0,2634.0,820.0,-1141.0
1602,87.0,-907.0,385.0,2629.0,773.0,-1153.0
1603,53.0,-701.0,409.0,2566.0,686.0,-1153.0
1604,85.0,-406.0,314.0,2108.0,458.0,-1120.0
1605,68.0,-1111.0,-69.0,-3815.0,-425.0,1184.0
1606,129.0,-1196.0,-19.0,-3837.0,-500.0,1123.0
1607,217.0,-1250.0,46.0,-3853.0,-547.0,1089.0
1608,304.0,-1332.0,119.0,-3913.0,-532.0,1072.0
1609,359.0,-1485.0,190.0,-3992.0,-457.0,1056.0
1610,390.0,-1578.0,273.0,-4012.0,-354.0,1029.0
1611,411.0,-1663.0,352.0,-4020.0,-257.0,1003.0
1612,393.0,-1722.0,422.0,-4007.0,-179.0,970.0
1613,416.0,-1771.0,457.0,-3972.0,-152.0,927.0
1614,459.0,-1789.0,486.0,-3910.0,-133.0,878.0
1615,515.0,-1774.0,517.0,-3849.0,-87.0,810.0
1616,620.0,-1802.0,545.0,-3815.0,8.0,737.0
1617,657.0,-1818.0,608.0,-3746.0,218.0,652.0
1618,575.0,-1803.0,661.0,-3630.0,514.0,555.0
1619,415.0,-1746.0,702.0,-3484.0,780.0,493.0
1620,-85.0,-1058.0,952.0,-106.0,-139.0,-114.0
1621,105.0,-865.0,256.0,601.0,-693.0,-163.0
1622,127.0,-1364.0,-740.0,-443.0,-296.0,-208.0
1623,139.0,-1793.0,-1373.0,115.0,-119.0,-236.0
1624,166.0,-1959.0,-1849.0,972.0,165.0,-202.0
1625,105.0,-1959.0,-1797.0,2127.0,438.0,-139.0
1626,-80.0,-1288.0,-1019.0,3019.0,552.0,-157.0
1627,135.0,-286.0,505.0,2819.0,433.0,-213.0
1628,71.0,-1227.0,643.0,1391.0,522.0,-199.0
1629,153.0,-934.0,646.0,1337.0,504.0,-283.0
1630,159.0,-1112.0,-111.0,992.0,96.0,-138.0
1631,154.0,-1118.0,-170.0,1140.0,166.0,-152.0
1632,44.0,-953.0,-70.0,1350.0,203.0,-146.0
1633,-32.0,-807.0,263.0,1386.0,117.0,-160.0
1634,179.0,-861.0,292.0,1085.0,-11.0,-226.0
1635,-1.0,-900.0,226.0,854.0,146.0,-252.0
1636,155.0,-942.0,194.0,722.0,74.0,-321.0
1637,108.0,-905.0,235.0,635.0,114.0,-332.0
1638,159.0,-925.0,205.0,523.0,141.0,-365.0
1639,168.0,-943.0,186.0,444.0,162.0,-365.0
1640,180.0,-972.0,174.0,394.0,160.0,-340.0
1641,59.0,-914.0,235.0,205.0,116.0,7.0
1642,155.0,-962.0,255.0,112.0,55.0,144.0
1643,141.0,-968.0,242.0,100.0,67.0,122.0
1644,141.0,-942.0,254.0,102.0,69.0,98.0
1645,150.0,-942.0,249.0,94.0,69.0,80.0
1646,158.0,-960.0,240.0,84.0,74.0,69.0
1647,160.0,-957.0,245.0,79.0,78.0,62.0
1648,153.0,-949.0,244.0,71.0,85.0,54.0
1649,142.0,-947.0,247.0,59.0,93.0,44.0
1650,147.0,-938.0,255.0,45.0,91.0,33.0
1651,154.0,-941.0,253.0,28.0,94.0,25.0
1652,152.0,-949.0,239.0,14.0,100.0,22.0
1653,142.0,-962.0,242.0,-83.0,129.0,-21.0
1654,135.0,-974.0,226.0,58.0,145.0,-77.0
1655,137.0,-964.0,235.0,77.0,129.0,-81.0
1656,176.0,-968.0,229.0,86.0,106.0,-77.0
1657,187.0,-980.0,213.0,101.0,107.0,-55.0
1658,162.0,-956.0,246.0,132.0,112.0,-26.0
1659,139.0,-961.0,248.0,134.0,115.0,-15.0
1660,140.0,-950.0,255.0,135.0,109.0,-24.0
1661,141.0,-954.0,259.0,130.0,104.0,-30.0
1662,142.0,-971.0,247.0,125.0,104.0,-38.0
1663,144.0,-956.0,255.0,138.0,100.0,-47.0
1664,137.0,-967.0,258.0,138.0,96.0,-52.0
1665,155.0,-937.0,291.0,265.0,160.0,17.0
1666,157.0,-1163.0,353.0,701.0,51.0,-86.0
1667,140.0,-1170.0,369.0,798.0,51.0,-92.0
1668,113.0,-1087.0,378.0,889.0,44.0,-115.0
1669,69.0,-1100.0,382.0,891.0,39.0,-155.0
1670,33.0,-1119.0,405.0,904.0,10.0,-203.0
1671,68.0,-1099.0,412.0,943.0,-50.0,-249.0
1672,133.0,-1087.0,404.0,958.0,-80.0,-255.0
1673,194.0,-1093.0,388.0,967.0,-77.0,-261.0
1674,207.0,-1081.0,398.0,997.0,-49.0,-270.0
1675,258.0,-1250.0,274.0,2160.0,876.0,-1105.0
1676,72.0,-1272.0,355.0,2197.0,950.0,-1042.0
1677,68.0,-1162.0,430.0,2317.0,847.0,-969.0
1678,115.0,-1050.0,505.0,2378.0,721.0,-894.0
1679,135.0,-987.0,601.0,2390.0,657.0,-798.0
1680,149.0,-974.0,668.0,2392.0,579.0,-660.0
1681,280.0,-952.0,687.0,2413.0,443.0,-518.0
1682,452.0,-945.0,611.0,2415.0,367.0,-411.0
1683,467.0,-921.0,522.0,2424.0,453.0,-370.0
1684,378.0,-810.0,472.0,2455.0,554.0,-378.0
1685,225.0,-635.0,438.0,2448.0,579.0,-410.0
1686,11.0,-269.0,-341.0,-2414.0,-213.0,777.0
1687,-102.0,-916.0,27.0,-3463.0,209.0,921.0
1688,148.0,-1391.0,260.0,-3687.0,-682.0,781.0
1689,280.0,-1523.0,332.0,-3653.0,-829.0,728.0
1690,363.0,-1578.0,413.0,-3562.0,-887.0,653.0
1691,361.0,-1574.0,487.0,-3471.0,-878.0,571.0
1692,379.0,-1550.0,518.0,-3400.0,-875.0,565.0
1693,397.0,-1578.0,519.0,-3367.0,-861.0,642.0
1694,431.0,-1589.0,506.0,-3329.0,-826.0,672.0
1695,445.0,-1672.0,509.0,-3303.0,-756.0,627.0
1696,448.0,-1712.0,546.0,-3207.0,-664.0,580.0
1697,409.0,-1715.0,600.0,-3076.0,-539.0,549.0
1698,375.0,-1661.0,617.0,-2948.0,-423.0,521.0
1699,12.0,-1084.0,780.0,-354.0,-91.0,-31.0
1700,-41.0,-1017.0,686.0,-201.0,-71.0,-29.0
1701,-71.0,-1027.0,559.0,-105.0,-82.0,-14.0
1702,-117.0,-1002.0,433.0,6.0,-115.0,31.0
1703,-136.0,-939.0,305.0,98.0,-183.0,66.0
1704,-163.0,-914.0,220.0,137.0,-279.0,104.0
1705,-140.0,-938.0,167.0,155.0,-406.0,134.0
1706,-98.0,-914.0,146.0,206.0,-532.0,138.0
1707,-28.0,-284.0,657.0,2214.0,391.0,-56.0
1708,189.0,-875.0,629.0,1133.0,283.0,-121.0
1709,131.0,-883.0,446.0,864.0,310.0,-188.0
1710,37.0,-975.0,127.0,658.0,280.0,-235.0
1711,7.0,-1053.0,-89.0,554.0,194.0,-282.0
1712,-10.0,-1056.0,-129.0,575.0,83.0,-309.0
1713,3.0,-1009.0,-74.0,648.0,-44.0,-326.0
1714,78.0,-987.0,-41.0,699.0,-145.0,-342.0
1715,123.0,-976.0,-19.0,736.0,-173.0,-334.0
1716,162.0,-976.0,0.0,766.0,-158.0,-310.0
1717,201.0,-975.0,18.0,789.0,-117.0,-278.0
1718,130.0,-1029.0,42.0,828.0,177.0,-153.0
1719,135.0,-976.0,216.0,80.0,104.0,-139.0
1720,127.0,-985.0,206.0,84.0,112.0,-133.0
1721,134.0,-967.0,213.0,98.0,110.0,-129.0
1722,119.0,-962.0,218.0,103.0,115.0,-124.0
1723,115.0,-963.0,222.0,100.0,119.0,-130.0
1724,112.0,-952.0,222.0,100.0,118.0,-144.0
1725,86.0,-951.0,240.0,97.0,121.0,-159.0
1726,102.0,-952.0,243.0,82.0,106.0,-187.0
1727,119.0,-965.0,232.0,64.0,98.0,-206.0
1728,149.0,-972.0,224.0,57.0,89.0,-207.0
1729,172.0,-997.0,209.0,59.0,92.0,-194.0
1730,126.0,-931.0,252.0,48.0,65.0,-134.0
1731,151.0,-932.0,258.0,-11.0,64.0,-116.0
1732,177.0,-959.0,245.0,-22.0,61.0,-112.0
1733,183.0,-977.0,234.0,-22.0,68.0,-93.0
1734,172.0,-965.0,236.0,-13.0,75.0,-72.0
1735,153.0,-953.0,245.0,-7.0,77.0,-54.0
1736,161.0,-960.0,237.0,-8.0,66.0,-44.0
1737,178.0,-954.0,229.0,-5.0,51.0,-19.0
1738,204.0,-947.0,235.0,2.0,36.0,21.0
1739,192.0,-946.0,247.0,4.0,42.0,63.0
1740,144.0,-959.0,257.0,1.0,59.0,85.0
1741,126.0,-968.0,261.0,-5.0,64.0,70.0
1742,114.0,-950.0,253.0,-27.0,79.0,7.0
1743,161.0,-945.0,239.0,-25.0,19.0,-12.0
1744,167.0,-956.0,234.0,-23.0,14.0,9.0
1745,143.0,-963.0,232.0,-20.0,15.0,26.0
1746,127.0,-957.0,243.0,-17.0,7.0,28.0
1747,123.0,-956.0,248.0,-22.0,0.0,17.0
1748,124.0,-958.0,245.0,-31.0,-6.0,3.0
1749,126.0,-957.0,243.0,-37.0,-13.0,-13.0
1750,128.0,-956.0,245.0,-42.0,-20.0,-26.0
1751,133.0,-960.0,223.0,-115.0,-53.0,-23.0
1752,139.0,-960.0,219.0,-104.0,-68.0,-27.0
1753,155.0,-963.0,211.0,-92.0,-81.0,-28.0
1754,158.0,-972.0,205.0,-76.0,-80.0,-22.0
1755,157.0,-986.0,199.0,-55.0,-84.0,-18.0
1756,141.0,-988.0,190.0,-30.0,-83.0,-18.0
1757,141.0,-982.0,202.0,0.0,-92.0,-22.0
1758,140.0,-999.0,190.0,21.0,-102.0,-25.0
1759,166.0,-982.0,196.0,46.0,-123.0,-23.0
1760,159.0,-966.0,213.0,63.0,-133.0,-5.0
1761,160.0,-969.0,216.0,65.0,-141.0,8.0
1762,189.0,-961.0,208.0,6.0,-115.0,34.0
1763,191.0,-950.0,219.0,7.0,-94.0,38.0
1764,191.0,-935.0,224.0,3.0,-64.0,35.0
1765,158.0,-950.0,222.0,-1.0,-21.0,25.0
1766,161.0,-959.0,220.0,1.0,-2.0,9.0
1767,178.0,-956.0,222.0,3.0,9.0,2.0
1768,184.0,-971.0,210.0,2.0,27.0,5.0
1769,184.0,-965.0,216.0,5.0,45.0,13.0
1770,177.0,-958.0,224.0,7.0,59.0,23.0
1771,132.0,-1009.0,232.0,33.0,98.0,15.0
1772,5.0,-839.0,-707.0,368.0,-4338.0,1011.0
1773,198.0,-1046.0,-256.0,-394.0,-4915.0,1234.0
1774,275.0,-1065.0,-205.0,-380.0,-4975.0,1191.0
1775,331.0,-1049.0,-126.0,-334.0,-4954.0,1109.0
1776,353.0,-1049.0,-31.0,-297.0,-4840.0,1008.0
1777,288.0,-1079.0,84.0,-273.0,-4651.0,944.0
1778,286.0,-1098.0,162.0,-230.0,-4484.0,941.0
1779,286.0,-1081.0,235.0,-169.0,-4333.0,982.0
1780,337.0,-1101.0,287.0,-138.0,-4196.0,1008.0
1781,551.0,-1077.0,315.0,-82.0,-4091.0,1022.0
1782,513.0,-1084.0,-96.0,244.0,-223.0,-382.0
1783,494.0,-993.0,149.0,490.0,20.0,-203.0
1784,523.0,-868.0,365.0,529.0,159.0,49.0
1785,400.0,-890.0,416.0,348.0,296.0,337.0
1786,241.0,-923.0,372.0,164.0,379.0,567.0
1787,20.0,-1018.0,303.0,36.0,410.0,681.0
1788,-94.0,-1051.0,276.0,23.0,343.0,641.0
1789,-125.0,-1093.0,327.0,31.0,219.0,497.0
1790,-61.0,-1131.0,288.0,6.0,88.0,329.0
1791,4.0,-1179.0,196.0,-24.0,21.0,198.0
1792,1.0,-1172.0,181.0,15.0,18.0,111.0
1793,95.0,-956.0,262.0,58.0,22.0,-126.0
1794,119.0,-944.0,249.0,-14.0,5.0,-78.0
1795,105.0,-958.0,245.0,-19.0,5.0,-83.0
1796,117.0,-961.0,240.0,-18.0,-5.0,-97.0
1797,132.0,-961.0,233.0,-17.0,-13.0,-105.0
1798,144.0,-957.0,238.0,-13.0,-16.0,-100.0
1799,148.0,-967.0,231.0,-12.0,-12.0,-91.0
1800,154.0,-958.0,236.0,-3.0,-10.0,-81.0
1801,155.0,-957.0,237.0,0.0,-1.0,-69.0
1802,165.0,-956.0,239.0,0.0,12.0,-60.0
1803,172.0,-969.0,234.0,-6.0,30.0,-47.0
1804,180.0,-982.0,212.0,-6.0,52.0,-31.0
1805,151.0,-981.0,230.0,-8.0,83.0,40.0
1806,152.0,-960.0,242.0,53.0,50.0,18.0
1807,163.0,-959.0,240.0,57.0,62.0,41.0
1808,155.0,-963.0,243.0,62.0,80.0,69.0
1809,128.0,-969.0,243.0,69.0,102.0,87.0
1810,115.0,-956.0,255.0,76.0,114.0,88.0
1811,109.0,-952.0,257.0,73.0,118.0,78.0
1812,95.0,-951.0,257.0,67.0,122.0,66.0
1813,105.0,-952.0,253.0,61.0,116.0,50.0
1814,110.0,-945.0,261.0,59.0,110.0,42.0
1815,125.0,-947.0,257.0,50.0,105.0,43.0
1816,138.0,-944.0,256.0,42.0,105.0,54.0
1817,76.0,-1010.0,257.0,29.0,131.0,29.0
1818,143.0,-1086.0,108.0,1738.0,-397.0,689.0
1819,134.0,-900.0,72.0,1675.0,-482.0,711.0
1820,37.0,-779.0,23.0,1489.0,-510.0,735.0
1821,5.0,-560.0,-41.0,1267.0,-634.0,757.0
1822,-35.0,-440.0,-389.0,882.0,-732.0,753.0
1823,-441.0,-334.0,-660.0,397.0,-800.0,762.0
1824,-627.0,-434.0,-757.0,-128.0,-1362.0,804.0
1825,-5.0,-543.0,-836.0,-512.0,-2293.0,838.0
1826,635.0,-480.0,-934.0,-735.0,-2661.0,749.0
1827,852.0,-389.0,-939.0,-1017.0,-2384.0,579.0
1828,931.0,-476.0,-939.0,-1396.0,-1940.0,494.0
1829,889.0,-465.0,-887.0,-1669.0,-1447.0,429.0
1830,765.0,-550.0,-819.0,-1978.0,-966.0,339.0
1831,609.0,-653.0,-715.0,-2228.0,-598.0,231.0
1832,392.0,-762.0,-582.0,-2412.0,-355.0,120.0
1833,-241.0,-1538.0,413.0,-2484.0,-259.0,-17.0
1834,-309.0,-1516.0,484.0,-2334.0,-391.0,79.0
1835,-234.0,-1464.0,525.0,-2164.0,-572.0,197.0
1836,-6.0,-1397.0,526.0,-1992.0,-735.0,271.0
1837,233.0,-1326.0,498.0,-1827.0,-789.0,272.0
1838,401.0,-1260.0,462.0,-1689.0,-718.0,207.0
1839,411.0,-1221.0,474.0,-1587.0,-562.0,127.0
1840,362.0,-1236.0,538.0,-1483.0,-406.0,58.0
1841,266.0,-1228.0,609.0,-1332.0,-268.0,5.0
1842,164.0,-1191.0,662.0,-1147.0,-175.0,-34.0
1843,-7.0,-1149.0,719.0,-960.0,-120.0,-57.0
1844,-45.0,-1085.0,631.0,-550.0,-271.0,-6.0
1845,148.0,-1133.0,-394.0,89.0,-230.0,-319.0
1846,98.0,-1411.0,-669.0,366.0,-53.0,-360.0
1847,104.0,-1768.0,-1034.0,822.0,112.0,-404.0
1848,38.0,-1827.0,-1332.0,1500.0,317.0,-368.0
1849,62.0,-1878.0,-1274.0,2108.0,329.0,-322.0
1850,27.0,-884.0,-350.0,2641.0,267.0,-181.0
1851,179.0,-1179.0,216.0,1851.0,148.0,-51.0
1852,133.0,-995.0,638.0,1491.0,155.0,-120.0
1853,60.0,-997.0,529.0,1208.0,138.0,-196.0
1854,-17.0,-997.0,162.0,991.0,88.0,-256.0
1855,-48.0,-1036.0,-116.0,869.0,3.0,-326.0
1856,67.0,-1005.0,-141.0,926.0,-201.0,-341.0
1857,92.0,-1008.0,71.0,524.0,148.0,-176.0
1858,72.0,-1002.0,80.0,522.0,154.0,-209.0
1859,88.0,-1015.0,60.0,521.0,142.0,-240.0
1860,87.0,-1016.0,51.0,534.0,128.0,-254.0
1861,104.0,-1016.0,71.0,556.0,102.0,-252.0
1862,121.0,-1059.0,-6.0,621.0,67.0,-203.0
1863,110.0,-1060.0,37.0,700.0,34.0,-157.0
1864,142.0,-1055.0,36.0,754.0,-20.0,-118.0
1865,121.0,-1066.0,8.0,808.0,-36.0,-76.0
1866,176.0,-1024.0,38.0,881.0,-75.0,-28.0
1867,175.0,-948.0,167.0,919.0,-75.0,38.0
1868,184.0,-915.0,203.0,849.0,-38.0,68.0
1869,154.0,-904.0,263.0,737.0,25.0,86.0
1870,133.0,-884.0,296.0,628.0,56.0,96.0
1871,45.0,-887.0,267.0,202.0,117.0,-307.0
1872,114.0,-931.0,262.0,59.0,80.0,86.0
1873,122.0,-957.0,252.0,37.0,81.0,67.0
1874,115.0,-973.0,240.0,24.0,84.0,50.0
1875,98.0,-962.0,253.0,20.0,88.0,25.0
1876,128.0,-930.0,259.0,8.0,72.0,-1.0
1877,148.0,-926.0,259.0,-15.0,68.0,0.0
1878,150.0,-938.0,248.0,-40.0,77.0,13.0
1879,134.0,-904.0,266.0,-51.0,80.0,31.0
1880,127.0,-917.0,267.0,-82.0,83.0,43.0
1881,133.0,-953.0,243.0,-113.0,83.0,45.0
1882,154.0,-931.0,252.0,-120.0,76.0,53.0
1883,119.0,-955.0,236.0,-75.0,98.0,54.0
1884,118.0,-984.0,208.0,-128.0,128.0,11.0
1885,107.0,-966.0,234.0,116.0,153.0,-43.0
1886,102.0,-978.0,220.0,113.0,164.0,-56.0
1887,113.0,-990.0,219.0,118.0,161.0,-63.0
1888,131.0,-1013.0,196.0,133.0,150.0,-58.0
1889,124.0,-989.0,233.0,180.0,145.0,-46.0
1890,129.0,-988.0,236.0,193.0,143.0,-36.0
1891,145.0,-1032.0,225.0,196.0,153.0,-30.0
1892,137.0,-1080.0,202.0,223.0,175.0,-25.0
1893,142.0,-1077.0,216.0,281.0,183.0,-21.0
1894,164.0,-1094.0,211.0,317.0,197.0,-14.0
1895,180.0,-1090.0,225.0,361.0,217.0,12.0
1896,68.0,-1173.0,333.0,1124.0,197.0,-380.0
1897,248.0,-1419.0,344.0,2267.0,539.0,-772.0
1898,192.0,-1337.0,345.0,2409.0,566.0,-745.0
1899,150.0,-1266.0,353.0,2483.0,551.0,-764.0
1900,118.0,-1200.0,375.0,2515.0,504.0,-752.0
1901,147.0,-1118.0,349.0,2535.0,447.0,-690.0
1902,155.0,-1032.0,286.0,2533.0,449.0,-616.0
1903,166.0,-936.0,220.0,2521.0,466.0,-567.0
1904,98.0,-754.0,230.0,2502.0,524.0,-532.0
1905,-66.0,-502.0,-433.0,-2743.0,-736.0,691.0
1906,30.0,-551.0,-418.0,-3019.0,-757.0,710.0
1907,82.0,-630.0,-377.0,-3318.0,-717.0,748.0
1908,120.0,-854.0,-332.0,-3629.0,-660.0,843.0
1909,207.0,-1077.0,-270.0,-3802.0,-620.0,962.0
1910,265.0,-1194.0,-177.0,-3830.0,-547.0,1042.0
1911,299.0,-1287.0,-86.0,-3839.0,-470.0,1050.0
1912,293.0,-1385.0,-7.0,-3855.0,-421.0,1001.0
1913,264.0,-1480.0,61.0,-3871.0,-415.0,941.0
1914,227.0,-1605.0,132.0,-3886.0,-470.0,911.0
1915,211.0,-1762.0,215.0,-3865.0,-599.0,890.0
1916,150.0,-1381.0,770.0,-2016.0,1187.0,113.0
1917,22.0,-1242.0,838.0,-1772.0,1093.0,16.0
1918,-111.0,-1186.0,871.0,-1611.0,940.0,-80.0
1919,-110.0,-1239.0,852.0,-1447.0,711.0,-148.0
1920,-91.0,-1215.0,842.0,-1178.0,520.0,-151.0
1921,-56.0,-1120.0,802.0,-890.0,363.0,-132.0
1922,9.0,-1027.0,704.0,-662.0,230.0,-133.0
1923,22.0,-997.0,581.0,-499.0,158.0,-131.0
1924,-34.0,-979.0,467.0,-355.0,118.0,-116.0
1925,-78.0,-928.0,377.0,-222.0,43.0,-90.0
1926,-84.0,-876.0,317.0,-133.0,-57.0,-66.0
1927,269.0,-313.0,103.0,717.0,-504.0,-215.0
1928,190.0,-244.0,-43.0,31.0,-320.0,-365.0
1929,142.0,-1390.0,-621.0,-769.0,-141.0,-454.0
1930,243.0,-1332.0,-950.0,-121.0,10.0,-506.0
1931,358.0,-1895.0,-1579.0,378.0,337.0,-455.0
1932,273.0,-1959.0,-1937.0,1338.0,794.0,-249.0
1933,199.0,-1931.0,-1678.0,2595.0,1033.0,-58.0
1934,-148.0,-463.0,-240.0,3549.0,1019.0,48.0
1935,-38.0,-1107.0,476.0,2231.0,790.0,-13.0
1936,233.0,-961.0,851.0,1723.0,485.0,-154.0
1937,166.0,-1009.0,-9.0,631.0,-35.0,-219.0
1938,136.0,-980.0,66.0,686.0,-60.0,-179.0
1939,138.0,-950.0,118.0,685.0,-81.0,-187.0
1940,154.0,-985.0,70.0,615.0,-62.0,-208.0
1941,117.0,-1021.0,42.0,578.0,-9.0,-224.0
1942,113.0,-988.0,87.0,600.0,5.0,-259.0
1943,147.0,-937.0,116.0,592.0,-2.0,-292.0
1944,137.0,-889.0,188.0,537.0,15.0,-306.0
1945,114.0,-876.0,223.0,412.0,44.0,-342.0
1946,104.0,-899.0,211.0,261.0,55.0,-408.0
1947,139.0,-913.0,201.0,132.0,66.0,-471.0
1948,260.0,-986.0,68.0,113.0,69.0,41.0
1949,307.0,-968.0,113.0,358.0,43.0,573.0
1950,220.0,-941.0,161.0,418.0,31.0,713.0
1951,121.0,-936.0,195.0,403.0,29.0,738.0
1952,67.0,-940.0,205.0,345.0,18.0,660.0
1953,80.0,-967.0,181.0,276.0,3.0,548.0
1954,70.0,-959.0,193.0,239.0,0.0,447.0
1955,51.0,-940.0,227.0,198.0,11.0,345.0
1956,76.0,-954.0,213.0,134.0,16.0,239.0
1957,96.0,-960.0,200.0,90.0,24.0,157.0
1958,97.0,-969.0,188.0,64.0,40.0,94.0
1959,109.0,-981.0,171.0,44.0,53.0,41.0
1960,147.0,-951.0,199.0,-10.0,58.0,-40.0
1961,158.0,-968.0,191.0,46.0,106.0,-56.0
1962,155.0,-963.0,202.0,43.0,116.0,-55.0
1963,158.0,-1003.0,168.0,33.0,133.0,-65.0
1964,138.0,-1008.0,152.0,49.0,152.0,-81.0
1965,112.0,-961.0,202.0,89.0,154.0,-97.0
1966,126.0,-976.0,197.0,75.0,144.0,-124.0
1967,147.0,-1012.0,157.0,61.0,134.0,-146.0
1968,150.0,-1026.0,144.0,96.0,132.0,-160.0
1969,181.0,-1006.0,148.0,153.0,130.0,-168.0
1970,173.0,-958.0,197.0,201.0,133.0,-149.0
1971,168.0,-959.0,201.0,197.0,142.0,-124.0
1972,130.0,-1004.0,230.0,244.0,208.0,84.0
1973,139.0,-1226.0,311.0,996.0,150.0,-26.0
1974,172.0,-920.0,326.0,1122.0,117.0,-88.0
1975,128.0,-1119.0,310.0,936.0,177.0,-164.0
1976,191.0,-1084.0,315.0,942.0,149.0,-260.0
1977,118.0,-1161.0,328.0,933.0,205.0,-258.0
1978,97.0,-1101.0,349.0,1002.0,232.0,-231.0
1979,51.0,-1165.0,343.0,1024.0,234.0,-276.0
1980,77.0,-1141.0,355.0,1104.0,201.0,-301.0
1981,96.0,-1189.0,369.0,1163.0,181.0,-338.0
1982,117.0,-1208.0,333.0,1256.0,167.0,-394.0
1983,142.0,-1148.0,367.0,1373.0,155.0,-441.0
1984,239.0,-1251.0,360.0,2410.0,700.0,-969.0
1985,-17.0,-496.0,-383.0,-983.0,-48.0,536.0
1986,271.0,-908.0,-396.0,-1130.0,-226.0,682.0
1987,-40.0,-359.0,-247.0,-671.0,121.0,479.0
1988,5.0,-235.0,-254.0,-852.0,80.0,378.0
1989,-22.0,-221.0,-298.0,-1142.0,97.0,453.0
1990,-122.0,-112.0,-331.0,-1397.0,120.0,600.0
1991,-126.0,-236.0,-388.0,-1804.0,51.0,753.0
1992,-103.0,-343.0,-406.0,-2107.0,-35.0,870.0
1993,-124.0,-366.0,-376.0,-2305.0,-95.0,919.0
1994,-128.0,-355.0,-337.0,-2528.0,-188.0,917.0
1995,-75.0,-385.0,-322.0,-2822.0,-306.0,916.0
1996,432.0,-1941.0,438.0,-3901.0,-698.0,533.0
1997,60.0,-1276.0,754.0,-1697.0,571.0,-43.0
1998,-30.0,-1323.0,797.0,-1571.0,551.0,-43.0
1999,-32.0,-1318.0,814.0,-1346.0,485.0,-25.0
2000,-30.0,-1246.0,803.0,-1075.0,452.0,-28.0
2001,-78.0,-1177.0,777.0,-841.0,442.0,-27.0
2002,-109.0,-1102.0,703.0,-648.0,407.0,-24.0
2003,-79.0,-1085.0,576.0,-508.0,340.0,-16.0
2004,-56.0,-1067.0,447.0,-363.0,276.0,13.0
2005,-70.0,-963.0,329.0,-208.0,195.0,25.0
2006,-85.0,-916.0,193.0,-140.0,81.0,3.0
2007,20.0,-851.0,60.0,79.0,-315.0,-77.0
2008,45.0,-884.0,82.0,113.0,-308.0,-68.0
2009,73.0,-923.0,92.0,221.0,-267.0,-43.0
2010,125.0,-882.0,152.0,275.0,-215.0,-21.0
2011,75.0,-1057.0,172.0,290.0,-124.0,-24.0
2012,56.0,-1044.0,239.0,541.0,-90.0,-60.0
2013,24.0,-883.0,234.0,759.0,-57.0,-164.0
2014,88.0,-915.0,47.0,1552.0,-283.0,-373.0
2015,237.0,-965.0,1.0,1478.0,-347.0,-333.0
2016,159.0,-987.0,33.0,1442.0,-260.0,-264.0
2017,161.0,-948.0,74.0,1458.0,-187.0,-270.0
2018,196.0,-947.0,99.0,1434.0,-94.0,-311.0
2019,244.0,-934.0,133.0,1380.0,19.0,-300.0
2020,229.0,-927.0,155.0,1310.0,139.0,-242.0
2021,191.0,-942.0,153.0,1225.0,212.0,-171.0
2022,152.0,-945.0,165.0,1157.0,210.0,-97.0
2023,152.0,-930.0,185.0,1101.0,147.0,-29.0
2024,179.0,-932.0,176.0,1022.0,79.0,39.0
2025,136.0,-969.0,209.0,50.0,89.0,4.0
2026,153.0,-943.0,240.0,118.0,89.0,-69.0
2027,135.0,-948.0,246.0,107.0,96.0,-79.0
2028,139.0,-955.0,251.0,90.0,99.0,-103.0
2029,138.0,-967.0,233.0,71.0,107.0,-127.0
2030,137.0,-963.0,232.0,68.0,111.0,-147.0
2031,154.0,-964.0,234.0,70.0,105.0,-159.0
2032,177.0,-966.0,220.0,68.0,98.0,-156.0
2033,189.0,-957.0,225.0,76.0,92.0,-135.0
2034,195.0,-950.0,231.0,80.0,88.0,-107.0
2035,194.0,-945.0,228.0,81.0,91.0,-76.0
2036,177.0,-937.0,239.0,85.0,91.0,-46.0
2037,155.0,-945.0,256.0,21.0,76.0,10.0
2038,147.0,-959.0,249.0,-16.0,69.0,-8.0
2039,165.0,-954.0,256.0,79.0,160.0,28.0
2040,164.0,-950.0,252.0,76.0,166.0,34.0
2041,137.0,-944.0,260.0,72.0,174.0,36.0
2042,135.0,-942.0,262.0,63.0,170.0,26.0
2043,136.0,-945.0,261.0,53.0,161.0,16.0
2044,142.0,-944.0,256.0,45.0,151.0,9.0
2045,127.0,-936.0,263.0,37.0,148.0,3.0
2046,133.0,-934.0,265.0,27.0,133.0,-3.0
2047,146.0,-936.0,261.0,19.0,122.0,-2.0
2048,138.0,-933.0,263.0,13.0,116.0,3.0
2049,132.0,-934.0,263.0,6.0,116.0,1.0
2050,153.0,-1077.0,195.0,21.0,146.0,2.0
2051,114.0,-934.0,294.0,54.0,99.0,98.0
2052,106.0,-931.0,293.0,45.0,101.0,94.0
2053,94.0,-928.0,299.0,41.0,99.0,83.0
2054,69.0,-954.0,305.0,32.0,98.0,72.0
2055,100.0,-960.0,288.0,30.0,77.0,51.0
2056,110.0,-973.0,285.0,35.0,72.0,39.0
2057,107.0,-975.0,287.0,46.0,72.0,36.0
2058,111.0,-979.0,290.0,58.0,65.0,30.0
2059,113.0,-1037.0,321.0,323.0,130.0,7.0
2060,81.0,-1060.0,333.0,363.0,129.0,16.0
2061,86.0,-1055.0,340.0,416.0,105.0,24.0
2062,89.0,-1062.0,347.0,460.0,87.0,36.0
2063,67.0,-1103.0,364.0,502.0,82.0,72.0
2064,43.0,-1084.0,364.0,586.0,72.0,126.0
2065,26.0,-1078.0,373.0,627.0,59.0,84.0
2066,-8.0,-1157.0,376.0,641.0,45.0,81.0
2067,-7.0,-1202.0,380.0,721.0,4.0,106.0
2068,-8.0,-1284.0,377.0,799.0,-33.0,119.0
2069,-15.0,-1341.0,384.0,917.0,-68.0,133.0
2070,0.0,-1368.0,370.0,1063.0,-94.0,148.0
2071,41.0,-1366.0,340.0,1200.0,-104.0,167.0
2072,19.0,-1216.0,361.0,1334.0,-138.0,230.0
2073,-11.0,-1184.0,325.0,1343.0,-180.0,241.0
2074,-149.0,-715.0,-457.0,-426.0,-3024.0,1203.0
2075,-108.0,-724.0,-441.0,-531.0,-3112.0,1259.0
2076,-88.0,-748.0,-410.0,-644.0,-3189.0,1321.0
2077,-62.0,-733.0,-374.0,-750.0,-3275.0,1388.0
2078,-55.0,-772.0,-345.0,-896.0,-3361.0,1458.0
2079,-33.0,-883.0,-308.0,-1041.0,-3471.0,1518.0
2080,-36.0,-993.0,-255.0,-1114.0,-3585.0,1566.0
2081,-7.0,-1050.0,-201.0,-1118.0,-3741.0,1602.0
2082,97.0,-1098.0,-153.0,-1104.0,-3927.0,1618.0
2083,237.0,-1150.0,-91.0,-1078.0,-4072.0,1617.0
2084,428.0,-1149.0,-33.0,-1015.0,-4154.0,1605.0
2085,787.0,-1037.0,37.0,-970.0,-4084.0,1490.0
2086,63.0,-1015.0,237.0,288.0,275.0,289.0
2087,48.0,-947.0,447.0,298.0,283.0,238.0
2088,52.0,-940.0,493.0,145.0,293.0,203.0
2089,42.0,-1042.0,357.0,-46.0,327.0,160.0
2090,19.0,-1115.0,227.0,-92.0,343.0,91.0
2091,-32.0,-1169.0,192.0,-44.0,325.0,8.0
2092,13.0,-1160.0,197.0,51.0,234.0,-82.0
2093,142.0,-1049.0,226.0,146.0,134.0,-125.0
2094,-7.0,-860.0,325.0,84.0,184.0,-50.0
2095,64.0,-970.0,259.0,-57.0,28.0,-130.0
2096,125.0,-967.0,242.0,-47.0,3.0,-76.0
2097,130.0,-962.0,242.0,-40.0,0.0,-53.0
2098,110.0,-969.0,239.0,-35.0,5.0,-32.0
2099,106.0,-970.0,241.0,-28.0,-7.0,-21.0
2100,120.0,-965.0,240.0,-21.0,-29.0,-11.0
2101,101.0,-955.0,247.0,-12.0,-31.0,1.0
2102,73.0,-961.0,252.0,-4.0,-28.0,-4.0
2103,91.0,-965.0,251.0,1.0,-37.0,-30.0
2104,87.0,-969.0,245.0,6.0,-35.0,-48.0
2105,71.0,-980.0,245.0,15.0,-33.0,-65.0
2106,94.0,-1021.0,218.0,28.0,-44.0,-90.0
2107,69.0,-949.0,284.0,16.0,-129.0,59.0
2108,85.0,-982.0,267.0,72.0,2.0,83.0
2109,-303.0,-1060.0,369.0,332.0,-548.0,660.0
2110,-297.0,-1130.0,366.0,352.0,-659.0,796.0
2111,-220.0,-1145.0,336.0,402.0,-769.0,902.0
2112,-110.0,-1210.0,288.0,466.0,-845.0,1053.0
2113,-68.0,-1035.0,276.0,586.0,-831.0,1241.0
2114,18.0,-965.0,275.0,569.0,-846.0,1183.0
2115,33.0,-1023.0,243.0,481.0,-838.0,1125.0
2116,81.0,-895.0,237.0,481.0,-875.0,1072.0
2117,102.0,-863.0,247.0,387.0,-906.0,941.0
2118,92.0,-882.0,242.0,278.0,-928.0,869.0
2119,60.0,-894.0,227.0,200.0,-940.0,880.0
2120,-132.0,-1046.0,-661.0,-641.0,-5535.0,1102.0
2121,930.0,-1182.0,336.0,-242.0,-3502.0,409.0
2122,946.0,-1078.0,520.0,-51.0,-3171.0,253.0
2123,972.0,-1059.0,660.0,60.0,-2803.0,117.0
2124,903.0,-1043.0,798.0,170.0,-2362.0,30.0
2125,808.0,-1109.0,866.0,274.0,-1887.0,-45.0
2126,787.0,-1081.0,825.0,458.0,-1423.0,-122.0
2127,748.0,-1039.0,764.0,690.0,-960.0,-195.0
2128,698.0,-947.0,737.0,949.0,-516.0,-268.0
2129,176.0,-947.0,252.0,11.0,-89.0,-322.0
2130,119.0,-989.0,270.0,-15.0,2.0,-55.0
2131,140.0,-980.0,260.0,-17.0,10.0,-75.0
2132,91.0,-970.0,275.0,-33.0,15.0,-130.0
2133,107.0,-954.0,284.0,-37.0,-4.0,-157.0
2134,134.0,-966.0,273.0,-51.0,-11.0,-167.0
2135,149.0,-988.0,273.0,-62.0,1.0,-170.0
2136,168.0,-966.0,260.0,-66.0,13.0,-165.0
2137,178.0,-948.0,263.0,-63.0,27.0,-142.0
2138,145.0,-945.0,270.0,-62.0,57.0,-114.0
2139,123.0,-953.0,266.0,-61.0,71.0,-106.0
2140,133.0,-968.0,264.0,-52.0,63.0,-107.0
2141,136.0,-991.0,250.0,-43.0,63.0,-103.0
2142,148.0,-962.0,258.0,-24.0,58.0,-93.0
2143,169.0,-975.0,256.0,17.0,105.0,16.0
2144,97.0,-1158.0,317.0,205.0,114.0,53.0
2145,192.0,-1216.0,296.0,237.0,80.0,21.0
2146,212.0,-1324.0,303.0,317.0,111.0,28.0
2147,284.0,-1352.0,282.0,466.0,146.0,62.0
2148,298.0,-1370.0,264.0,615.0,235.0,103.0
2149,321.0,-1330.0,252.0,704.0,321.0,86.0
2150,261.0,-1434.0,261.0,699.0,432.0,-19.0
2151,231.0,-1449.0,286.0,803.0,442.0,-224.0
2152,87.0,-1357.0,311.0,946.0,432.0,-358.0
2153,101.0,-1274.0,223.0,978.0,346.0,-364.0
2154,-20.0,-1163.0,174.0,950.0,277.0,-386.0
2155,38.0,-1161.0,-512.0,-2362.0,-316.0,251.0
2156,268.0,-1421.0,351.0,-2152.0,-934.0,245.0
2157,262.0,-1409.0,380.0,-2018.0,-1015.0,203.0
2158,220.0,-1395.0,403.0,-1862.0,-1065.0,160.0
2159,176.0,-1319.0,419.0,-1690.0,-1090.0,123.0
2160,123.0,-1262.0,434.0,-1584.0,-1072.0,99.0
2161,287.0,-1197.0,414.0,-1516.0,-1071.0,149.0
2162,439.0,-1191.0,409.0,-1473.0,-954.0,194.0
2163,483.0,-1205.0,413.0,-1399.0,-738.0,154.0
2164,416.0,-1149.0,431.0,-1252.0,-507.0,98.0
2165,311.0,-1102.0,425.0,-1118.0,-321.0,53.0
2166,25.0,-920.0,347.0,-822.0,-104.0,17.0
2167,119.0,-924.0,73.0,-243.0,6.0,-116.0
2168,77.0,-897.0,104.0,-156.0,64.0,-136.0
2169,-9.0,-904.0,117.0,-83.0,113.0,-144.0
2170,-60.0,-926.0,76.0,1.0,129.0,-137.0
2171,-69.0,-892.0,18.0,97.0,125.0,-122.0
2172,-71.0,-891.0,-19.0,149.0,118.0,-110.0
2173,-71.0,-916.0,-82.0,189.0,105.0,-102.0
2174,-91.0,-877.0,-130.0,249.0,84.0,-95.0
2175,-125.0,-862.0,-160.0,277.0,42.0,-97.0
2176,-92.0,-882.0,-201.0,288.0,-29.0,-81.0
2177,-41.0,-901.0,-211.0,307.0,-82.0,-66.0
2178,-64.0,-923.0,-239.0,357.0,64.0,-177.0
2179,-63.0,-1642.0,-1321.0,1887.0,-180.0,-427.0
2180,209.0,-1597.0,-1120.0,2089.0,-238.0,-420.0
2181,402.0,-1554.0,-364.0,2077.0,-184.0,-218.0
2182,226.0,-1231.0,457.0,2008.0,84.0,-151.0
2183,127.0,-1035.0,620.0,1818.0,300.0,-337.0
2184,115.0,-1008.0,217.0,1535.0,453.0,-511.0
2185,9.0,-988.0,-38.0,1340.0,495.0,-560.0
2186,57.0,-969.0,-62.0,1209.0,388.0,-578.0
2187,78.0,-920.0,56.0,1121.0,306.0,-568.0
2188,128.0,-915.0,85.0,1042.0,256.0,-544.0
2189,154.0,-928.0,67.0,967.0,238.0,-508.0
2190,169.0,-1009.0,53.0,556.0,36.0,-260.0
2191,187.0,-1022.0,45.0,603.0,-4.0,-206.0
2192,205.0,-1056.0,-7.0,657.0,-10.0,-157.0
2193,199.0,-1050.0,-16.0,752.0,-12.0,-97.0
2194,196.0,-996.0,37.0,846.0,-38.0,-18.0
2195,248.0,-925.0,134.0,890.0,-72.0,64.0
2196,208.0,-892.0,178.0,848.0,-28.0,131.0
2197,147.0,-862.0,242.0,750.0,52.0,138.0
2198,115.0,-873.0,303.0,618.0,105.0,91.0
2199,221.0,-960.0,186.0,58.0,173.0,-387.0
2200,206.0,-948.0,176.0,63.0,186.0,-324.0
2201,277.0,-921.0,180.0,77.0,149.0,-270.0
2202,250.0,-928.0,184.0,85.0,152.0,-181.0
2203,236.0,-945.0,196.0,91.0,164.0,-120.0
2204,231.0,-965.0,187.0,96.0,164.0,-81.0
2205,203.0,-946.0,200.0,108.0,173.0,-61.0
2206,225.0,-931.0,231.0,72.0,137.0,144.0
2207,267.0,-936.0,225.0,74.0,129.0,208.0
2208,239.0,-935.0,220.0,82.0,148.0,286.0
2209,190.0,-930.0,237.0,88.0,166.0,328.0
2210,150.0,-936.0,245.0,78.0,168.0,320.0
2211,132.0,-954.0,230.0,62.0,162.0,281.0
2212,120.0,-941.0,240.0,52.0,153.0,235.0
2213,142.0,-918.0,251.0,36.0,131.0,193.0
2214,133.0,-922.0,245.0,16.0,130.0,165.0
2215,119.0,-910.0,270.0,7.0,122.0,139.0
2216,148.0,-929.0,252.0,-15.0,108.0,113.0
2217,232.0,-947.0,229.0,-4.0,88.0,149.0
2218,184.0,-986.0,228.0,192.0,89.0,-192.0
2219,206.0,-961.0,252.0,212.0,93.0,-181.0
2220,197.0,-964.0,257.0,207.0,108.0,-158.0
2221,200.0,-985.0,255.0,200.0,120.0,-141.0
2222,203.0,-1003.0,241.0,207.0,137.0,-130.0
2223,200.0,-1022.0,239.0,234.0,155.0,-117.0
2224,205.0,-1010.0,242.0,276.0,169.0,-103.0
2225,174.0,-981.0,272.0,312.0,177.0,-87.0
2226,186.0,-987.0,282.0,313.0,178.0,-88.0
2227,193.0,-996.0,278.0,311.0,185.0,-84.0
2228,202.0,-1013.0,267.0,318.0,210.0,-77.0
2229,207.0,-1057.0,273.0,363.0,246.0,-52.0
2230,343.0,-1418.0,379.0,1489.0,356.0,-798.0
2231,367.0,-1446.0,364.0,1621.0,420.0,-914.0
2232,359.0,-1474.0,345.0,1755.0,486.0,-1031.0
2233,312.0,-1502.0,355.0,1880.0,553.0,-1140.0
2234,300.0,-1592.0,408.0,1994.0,631.0,-1162.0
2235,246.0,-1673.0,492.0,2179.0,725.0,-994.0
2236,264.0,-1528.0,322.0,2435.0,726.0,-861.0
2237,310.0,-1493.0,263.0,2545.0,723.0,-742.0
2238,289.0,-1438.0,296.0,2652.0,715.0,-609.0
2239,304.0,-1359.0,424.0,2738.0,645.0,-522.0
2240,333.0,-1319.0,491.0,2789.0,552.0,-418.0
2241,-700.0,-226.0,-426.0,-1190.0,219.0,346.0
2242,79.0,-1317.0,52.0,-4029.0,-92.0,1249.0
2243,-48.0,-1423.0,158.0,-4031.0,-250.0,1205.0
2244,-53.0,-1534.0,195.0,-4027.0,-568.0,1192.0
2245,3.0,-1655.0,213.0,-4006.0,-920.0,1192.0
2246,102.0,-1782.0,230.0,-3960.0,-1240.0,1133.0
2247,249.0,-1840.0,259.0,-3849.0,-1492.0,1040.0
2248,451.0,-1865.0,266.0,-3733.0,-1633.0,980.0
2249,631.0,-1835.0,288.0,-3633.0,-1613.0,928.0
2250,736.0,-1809.0,321.0,-3605.0,-1417.0,834.0
2251,845.0,-1781.0,362.0,-3637.0,-1111.0,779.0
2252,856.0,-1845.0,397.0,-3721.0,-671.0,811.0
2253,-93.0,-1183.0,925.0,-972.0,772.0,-90.0
2254,117.0,-899.0,71.0,73.0,-647.0,71.0
2255,225.0,-870.0,64.0,156.0,-577.0,67.0
2256,259.0,-851.0,84.0,212.0,-435.0,34.0
2257,274.0,-865.0,103.0,238.0,-283.0,-13.0
2258,280.0,-903.0,101.0,275.0,-128.0,-53.0
2259,257.0,-876.0,92.0,345.0,23.0,-92.0
2260,186.0,-836.0,92.0,388.0,147.0,-139.0
2261,114.0,-871.0,87.0,388.0,210.0,-177.0
2262,68.0,-916.0,89.0,410.0,220.0,-176.0
2263,64.0,-923.0,96.0,467.0,187.0,-155.0
2264,90.0,-913.0,99.0,523.0,136.0,-154.0
2265,256.0,-812.0,1082.0,1684.0,556.0,-422.0
2266,220.0,-982.0,-23.0,1058.0,-39.0,-130.0
2267,196.0,-970.0,30.0,1084.0,-22.0,-42.0
2268,182.0,-968.0,68.0,1073.0,-14.0,23.0
2269,180.0,-987.0,49.0,1043.0,1.0,60.0
2270,172.0,-992.0,51.0,1044.0,27.0,73.0
2271,186.0,-981.0,45.0,1049.0,33.0,95.0
2272,161.0,-984.0,57.0,1032.0,39.0,130.0
2273,146.0,-989.0,80.0,991.0,47.0,138.0
2274,110.0,-988.0,86.0,942.0,83.0,95.0
2275,73.0,-964.0,147.0,906.0,142.0,17.0
2276,55.0,-919.0,239.0,852.0,181.0,-79.0
2277,84.0,-993.0,136.0,664.0,245.0,-241.0
2278,204.0,-956.0,230.0,120.0,98.0,-29.0
2279,191.0,-962.0,229.0,119.0,108.0,-22.0
2280,196.0,-941.0,235.0,120.0,112.0,-22.0
2281,174.0,-929.0,246.0,117.0,121.0,-13.0
2282,169.0,-929.0,234.0,108.0,121.0,-8.0
2283,191.0,-919.0,223.0,103.0,109.0,2.0
2284,205.0,-894.0,244.0,98.0,99.0,33.0
2285,195.0,-921.0,244.0,79.0,103.0,62.0
2286,200.0,-936.0,242.0,68.0,105.0,77.0
2287,186.0,-935.0,247.0,61.0,110.0,89.0
2288,128.0,-928.0,274.0,101.0,118.0,24.0
2289,158.0,-969.0,272.0,227.0,116.0,-18.0
2290,158.0,-948.0,281.0,233.0,110.0,-18.0
2291,160.0,-944.0,288.0,230.0,111.0,-19.0
2292,167.0,-939.0,284.0,226.0,117.0,-18.0
2293,172.0,-945.0,278.0,215.0,120.0,-13.0
2294,157.0,-936.0,297.0,226.0,138.0,-9.0
2295,164.0,-945.0,293.0,221.0,145.0,-8.0
2296,166.0,-952.0,300.0,222.0,152.0,-6.0
2297,151.0,-991.0,292.0,220.0,167.0,-8.0
2298,155.0,-990.0,299.0,243.0,173.0,-20.0
2299,161.0,-1000.0,309.0,259.0,179.0,-29.0
2300,149.0,-1034.0,300.0,299.0,197.0,-68.0
2301,5.0,-1138.0,470.0,933.0,91.0,-239.0
2302,68.0,-1117.0,454.0,995.0,21.0,-244.0
2303,144.0,-1077.0,446.0,1049.0,-22.0,-259.0
2304,198.0,-1050.0,434.0,1077.0,-33.0,-280.0
2305,229.0,-1031.0,435.0,1096.0,-23.0,-308.0
2306,225.0,-1039.0,436.0,1109.0,1.0,-341.0
2307,235.0,-1056.0,439.0,1133.0,20.0,-378.0
2308,274.0,-1067.0,438.0,1173.0,32.0,-414.0
2309,332.0,-1086.0,435.0,1216.0,59.0,-463.0
2310,389.0,-1125.0,432.0,1262.0,116.0,-534.0
2311,430.0,-1150.0,427.0,1330.0,199.0,-624.0
2312,446.0,-1191.0,413.0,1390.0,299.0,-719.0
2313,460.0,-1234.0,421.0,1462.0,400.0,-819.0
2314,463.0,-1282.0,459.0,1552.0,510.0,-928.0
2315,496.0,-1362.0,647.0,1660.0,609.0,-1022.0
2316,239.0,-185.0,-303.0,946.0,257.0,-336.0
2317,0.0,-478.0,-342.0,-2442.0,200.0,1019.0
2318,-9.0,-560.0,-288.0,-2636.0,272.0,1057.0
2319,-5.0,-635.0,-255.0,-2797.0,300.0,1095.0
2320,-8.0,-665.0,-226.0,-2932.0,293.0,1121.0
2321,-37.0,-737.0,-198.0,-3107.0,249.0,1125.0
2322,-75.0,-871.0,-150.0,-3292.0,144.0,1124.0
2323,-48.0,-1023.0,-85.0,-3432.0,-44.0,1121.0
2324,-5.0,-1164.0,0.0,-3519.0,-244.0,1097.0
2325,59.0,-1306.0,92.0,-3571.0,-448.0,1051.0
2326,114.0,-1460.0,198.0,-3587.0,-639.0,998.0
2327,180.0,-1588.0,306.0,-3552.0,-821.0,942.0
2328,206.0,-1466.0,651.0,-2653.0,805.0,354.0
2329,-57.0,-1110.0,808.0,-267.0,-82.0,8.0
2330,-88.0,-1087.0,740.0,-87.0,-116.0,28.0
2331,-115.0,-1081.0,657.0,72.0,-180.0,44.0
2332,-133.0,-1040.0,561.0,229.0,-274.0,62.0
2333,-121.0,-1019.0,459.0,352.0,-393.0,78.0
2334,-110.0,-1011.0,360.0,462.0,-515.0,79.0
2335,-106.0,-955.0,273.0,571.0,-633.0,58.0
2336,-98.0,-934.0,198.0,631.0,-746.0,42.0
2337,-98.0,-926.0,153.0,671.0,-847.0,37.0
2338,-84.0,-895.0,108.0,708.0,-933.0,33.0
2339,-55.0,-868.0,75.0,712.0,-1001.0,39.0
2340,105.0,-1087.0,-412.0,-29.0,-835.0,-226.0
2341,110.0,-951.0,99.0,964.0,18.0,-258.0
2342,197.0,-926.0,162.0,938.0,-49.0,-198.0
2343,237.0,-879.0,157.0,885.0,-44.0,-122.0
2344,269.0,-869.0,208.0,793.0,-2.0,-35.0
2345,207.0,-822.0,307.0,671.0,87.0,48.0
2346,263.0,-819.0,328.0,488.0,92.0,107.0
2347,107.0,-953.0,232.0,330.0,204.0,149.0
2348,126.0,-990.0,174.0,289.0,171.0,156.0
2349,79.0,-993.0,194.0,293.0,186.0,179.0
2350,62.0,-978.0,176.0,294.0,170.0,168.0
2351,8.0,-942.0,218.0,289.0,154.0,144.0
2352,161.0,-961.0,184.0,14.0,33.0,-173.0
2353,161.0,-1020.0,163.0,24.0,119.0,-72.0
2354,204.0,-985.0,157.0,53.0,102.0,-45.0
2355,201.0,-950.0,205.0,69.0,102.0,8.0
2356,142.0,-975.0,196.0,73.0,127.0,62.0
2357,158.0,-963.0,207.0,82.0,142.0,82.0
2358,125.0,-980.0,196.0,78.0,164.0,82.0
2359,98.0,-972.0,192.0,82.0,171.0,73.0
2360,64.0,-968.0,207.0,88.0,165.0,56.0
2361,65.0,-972.0,213.0,91.0,141.0,19.0
2362,63.0,-963.0,234.0,72.0,-40.0,40.0
2363,84.0,-975.0,216.0,62.0,-47.0,3.0
2364,66.0,-971.0,225.0,62.0,-57.0,-20.0
2365,72.0,-966.0,228.0,64.0,-75.0,-48.0
2366,91.0,-972.0,227.0,62.0,-90.0,-77.0
2367,105.0,-974.0,222.0,64.0,-94.0,-94.0
2368,104.0,-966.0,229.0,67.0,-96.0,-100.0
2369,130.0,-964.0,224.0,66.0,-98.0,-106.0
2370,131.0,-958.0,222.0,67.0,-94.0,-95.0
2371,120.0,-956.0,224.0,66.0,-88.0,-84.0
2372,151.0,-953.0,222.0,53.0,-109.0,-37.0
2373,139.0,-955.0,226.0,48.0,-105.0,-19.0
2374,144.0,-955.0,225.0,41.0,-105.0,-10.0
2375,133.0,-958.0,234.0,33.0,-100.0,-1.0
2376,140.0,-962.0,230.0,24.0,-100.0,3.0
2377,141.0,-964.0,224.0,17.0,-97.0,9.0
2378,118.0,-963.0,229.0,15.0,-89.0,15.0
2379,104.0,-962.0,232.0,14.0,-94.0,11.0
2380,134.0,-943.0,232.0,92.0,-215.0,69.0
2381,111.0,-948.0,239.0,87.0,-206.0,75.0
2382,97.0,-962.0,233.0,84.0,-212.0,74.0
2383,119.0,-968.0,219.0,87.0,-231.0,75.0
2384,93.0,-957.0,234.0,91.0,-234.0,73.0
2385,101.0,-936.0,243.0,90.0,-255.0,65.0
2386,119.0,-941.0,240.0,81.0,-262.0,51.0
2387,131.0,-937.0,239.0,73.0,-255.0,35.0
2388,155.0,-942.0,230.0,61.0,-243.0,23.0
2389,132.0,-999.0,227.0,-17.0,74.0,28.0
2390,-38.0,-1112.0,262.0,47.0,-162.0,130.0
2391,-123.0,-1087.0,289.0,87.0,-219.0,217.0
2392,-119.0,-1167.0,270.0,91.0,-365.0,303.0
2393,-112.0,-1033.0,283.0,174.0,-426.0,499.0
2394,-226.0,-1061.0,314.0,195.0,-419.0,572.0
2395,-262.0,-996.0,335.0,219.0,-526.0,610.0
2396,-290.0,-986.0,391.0,208.0,-628.0,711.0
2397,-322.0,-1117.0,320.0,212.0,-705.0,863.0
2398,-395.0,-1075.0,276.0,300.0,-800.0,969.0
2399,-579.0,-1040.0,327.0,323.0,-960.0,1126.0
2400,-521.0,-945.0,361.0,317.0,-1342.0,1272.0
2401,356.0,-1116.0,-455.0,1236.0,-4476.0,793.0
2402,481.0,-839.0,448.0,-37.0,-2714.0,534.0
2403,481.0,-793.0,407.0,44.0,-2834.0,411.0
2404,637.0,-846.0,348.0,112.0,-2968.0,303.0
2405,853.0,-902.0,338.0,261.0,-2974.0,99.0
2406,1099.0,-868.0,427.0,484.0,-2794.0,-156.0
2407,1277.0,-849.0,595.0,670.0,-2387.0,-355.0
2408,1330.0,-741.0,871.0,819.0,-1857.0,-460.0
2409,1334.0,-654.0,979.0,771.0,-1275.0,-393.0
2410,1022.0,-468.0,793.0,564.0,-558.0,-128.0
2411,464.0,-696.0,329.0,123.0,47.0,280.0
2412,152.0,-1018.0,63.0,-14.0,219.0,502.0
2413,6.0,-980.0,257.0,6.0,2.0,-258.0
2414,154.0,-937.0,254.0,-8.0,-40.0,-134.0
2415,117.0,-944.0,264.0,-21.0,-35.0,-122.0
2416,136.0,-950.0,254.0,-31.0,-52.0,-127.0
2417,167.0,-953.0,239.0,-34.0,-63.0,-120.0
2418,185.0,-947.0,236.0,-29.0,-61.0,-94.0
2419,179.0,-943.0,238.0,-26.0,-52.0,-59.0
2420,163.0,-942.0,244.0,-24.0,-46.0,-28.0
2421,161.0,-944.0,251.0,-25.0,-52.0,-9.0
2422,162.0,-950.0,249.0,-32.0,-54.0,3.0
2423,167.0,-958.0,242.0,-39.0,-47.0,11.0
2424,142.0,-959.0,236.0,-153.0,82.0,62.0
2425,114.0,-971.0,214.0,0.0,103.0,34.0
2426,122.0,-967.0,218.0,10.0,94.0,27.0
2427,121.0,-958.0,228.0,15.0,88.0,25.0
2428,121.0,-957.0,230.0,14.0,83.0,24.0
2429,123.0,-957.0,226.0,10.0,77.0,21.0
2430,132.0,-956.0,223.0,8.0,70.0,19.0
2431,129.0,-952.0,223.0,7.0,74.0,22.0
2432,128.0,-955.0,220.0,4.0,77.0,26.0
2433,127.0,-953.0,225.0,1.0,79.0,29.0
2434,132.0,-994.0,197.0,-8.0,86.0,-36.0
2435,131.0,-967.0,217.0,10.0,85.0,-30.0
2436,115.0,-953.0,232.0,15.0,83.0,-21.0
2437,121.0,-952.0,237.0,3.0,79.0,-23.0
2438,133.0,-969.0,227.0,-16.0,82.0,-27.0
2439,124.0,-965.0,217.0,-32.0,99.0,-29.0
2440,109.0,-964.0,223.0,-31.0,111.0,-31.0
2441,120.0,-1010.0,195.0,-33.0,121.0,-43.0
2442,129.0,-996.0,188.0,-12.0,125.0,-55.0
2443,119.0,-956.0,235.0,17.0,118.0,-42.0
2444,139.0,-950.0,241.0,2.0,105.0,-30.0
2445,80.0,-999.0,245.0,216.0,112.0,83.0
2446,48.0,-1674.0,285.0,1019.0,116.0,391.0
2447,94.0,-1546.0,251.0,1334.0,67.0,472.0
2448,182.0,-1458.0,228.0,1471.0,40.0,351.0
2449,186.0,-1648.0,164.0,1486.0,46.0,212.0
2450,234.0,-1498.0,101.0,1665.0,-5.0,259.0
2451,232.0,-1283.0,84.0,1781.0,-33.0,268.0
2452,278.0,-1174.0,-13.0,1780.0,-18.0,253.0
2453,183.0,-1005.0,-89.0,1753.0,69.0,304.0
2454,107.0,-722.0,-124.0,1665.0,48.0,330.0
2455,-1.0,-455.0,-297.0,1349.0,-58.0,368.0
2456,-2.0,-364.0,-941.0,818.0,-188.0,427.0
2457,-141.0,-1620.0,147.0,-3046.0,-401.0,-50.0
2458,-4.0,-1454.0,501.0,-2170.0,-483.0,129.0
2459,239.0,-1223.0,449.0,-1616.0,-857.0,225.0
2460,381.0,-1198.0,451.0,-1530.0,-799.0,212.0
2461,432.0,-1168.0,454.0,-1413.0,-650.0,152.0
2462,393.0,-1128.0,468.0,-1279.0,-458.0,90.0
2463,293.0,-1082.0,456.0,-1153.0,-273.0,49.0
2464,198.0,-1018.0,433.0,-1033.0,-142.0,17.0
2465,69.0,-1022.0,412.0,-950.0,-48.0,-10.0
2466,-9.0,-1026.0,385.0,-839.0,-29.0,-11.0
2467,-20.0,-1002.0,329.0,-701.0,-59.0,15.0
2468,7.0,-962.0,271.0,-572.0,-93.0,37.0
2469,-41.0,-870.0,-73.0,131.0,-130.0,-48.0
2470,-30.0,-882.0,-73.0,149.0,-167.0,-40.0
2471,16.0,-909.0,-77.0,179.0,-197.0,-40.0
2472,61.0,-861.0,-92.0,233.0,-191.0,-58.0
2473,98.0,-801.0,-111.0,245.0,-157.0,-90.0
2474,99.0,-868.0,-155.0,193.0,-94.0,-105.0
2475,94.0,-895.0,-184.0,198.0,-31.0,-99.0
2476,75.0,-889.0,-191.0,233.0,21.0,-108.0
2477,72.0,-884.0,-192.0,256.0,55.0,-115.0
2478,84.0,-902.0,-196.0,268.0,82.0,-116.0
2479,100.0,-912.0,-197.0,289.0,110.0,-131.0
2480,-130.0,-1332.0,-555.0,1034.0,-187.0,-124.0
2481,91.0,-990.0,60.0,590.0,132.0,-311.0
2482,77.0,-970.0,65.0,589.0,117.0,-328.0
2483,41.0,-940.0,117.0,574.0,103.0,-375.0
2484,94.0,-936.0,157.0,511.0,49.0,-426.0
2485,93.0,-948.0,134.0,418.0,45.0,-458.0
2486,112.0,-921.0,157.0,346.0,67.0,-506.0
2487,130.0,-936.0,154.0,248.0,89.0,-542.0
2488,102.0,-948.0,152.0,170.0,116.0,-565.0
2489,172.0,-937.0,148.0,120.0,76.0,-575.0
2490,202.0,-945.0,128.0,77.0,42.0,-522.0
2491,192.0,-968.0,125.0,55.0,18.0,-380.0
2492,253.0,-971.0,105.0,55.0,157.0,-246.0
2493,250.0,-957.0,118.0,78.0,150.0,-212.0
2494,266.0,-916.0,156.0,90.0,131.0,-187.0
2495,254.0,-912.0,186.0,58.0,125.0,-159.0
2496,262.0,-959.0,109.0,1.0,140.0,-145.0
2497,256.0,-968.0,98.0,11.0,149.0,-127.0
2498,255.0,-935.0,145.0,39.0,141.0,-112.0
2499,255.0,-958.0,141.0,21.0,148.0,-110.0
2500,250.0,-987.0,100.0,12.0,171.0,-118.0
2501,213.0,-964.0,128.0,48.0,183.0,-130.0
2502,188.0,-972.0,161.0,45.0,173.0,-172.0
2503,283.0,-954.0,149.0,271.0,106.0,270.0
2504,130.0,-973.0,203.0,118.0,3.0,124.0
2505,229.0,-933.0,235.0,124.0,-56.0,131.0
2506,173.0,-981.0,217.0,105.0,-31.0,176.0
2507,159.0,-983.0,215.0,108.0,-18.0,171.0
2508,104.0,-977.0,243.0,113.0,4.0,142.0
2509,129.0,-982.0,223.0,92.0,11.0,76.0
2510,149.0,-982.0,220.0,87.0,28.0,35.0
2511,177.0,-948.0,241.0,92.0,45.0,19.0
2512,150.0,-933.0,258.0,80.0,79.0,21.0
2513,114.0,-948.0,245.0,57.0,107.0,13.0
2514,138.0,-966.0,252.0,65.0,110.0,-50.0
2515,153.0,-985.0,237.0,64.0,120.0,-75.0
2516,170.0,-982.0,246.0,78.0,143.0,-93.0
2517,141.0,-997.0,249.0,85.0,180.0,-114.0
2518,134.0,-1000.0,247.0,94.0,201.0,-148.0
2519,148.0,-997.0,250.0,109.0,206.0,-178.0
2520,169.0,-1005.0,247.0,120.0,208.0,-188.0
2521,184.0,-1007.0,221.0,138.0,217.0,-183.0
2522,172.0,-973.0,235.0,176.0,224.0,-162.0
2523,149.0,-933.0,260.0,200.0,216.0,-140.0
2524,154.0,-931.0,263.0,184.0,199.0,-129.0
2525,170.0,-928.0,286.0,179.0,159.0,-59.0
2526,293.0,-1085.0,350.0,782.0,-103.0,-140.0
2527,309.0,-1116.0,349.0,816.0,-32.0,-163.0
2528,280.0,-1126.0,368.0,864.0,43.0,-189.0
2529,249.0,-1156.0,378.0,905.0,94.0,-230.0
2530,210.0,-1183.0,396.0,962.0,128.0,-277.0
2531,197.0,-1207.0,400.0,1030.0,139.0,-333.0
2532,198.0,-1232.0,403.0,1105.0,144.0,-388.0
2533,206.0,-1244.0,404.0,1196.0,156.0,-454.0
2534,239.0,-1261.0,408.0,1291.0,172.0,-526.0
2535,271.0,-1274.0,410.0,1380.0,200.0,-595.0
2536,308.0,-1305.0,384.0,1470.0,246.0,-632.0
2537,136.0,-1058.0,365.0,2545.0,662.0,-605.0
2538,98.0,-985.0,313.0,2582.0,662.0,-584.0
2539,55.0,-819.0,275.0,2625.0,639.0,-584.0
2540,55.0,-623.0,257.0,2577.0,582.0,-586.0
2541,-109.0,-272.0,224.0,1812.0,358.0,-369.0
2542,-7.0,-246.0,77.0,1429.0,149.0,-230.0
2543,223.0,38.0,-380.0,1057.0,-20.0,-142.0
2544,-360.0,568.0,-317.0,296.0,301.0,31.0
2545,-182.0,-409.0,-381.0,-1119.0,26.0,396.0
2546,101.0,-840.0,-338.0,-1303.0,-250.0,655.0
2547,-170.0,44.0,-217.0,-1739.0,-269.0,795.0
2548,-148.0,15.0,-298.0,-2334.0,-423.0,1060.0
2549,-81.0,-200.0,-376.0,-2949.0,-550.0,1219.0
2550,19.0,-340.0,-421.0,-3383.0,-625.0,1223.0
2551,143.0,-564.0,-427.0,-3733.0,-645.0,1164.0
2552,205.0,-816.0,-376.0,-3937.0,-583.0,1081.0
2553,211.0,-899.0,-251.0,-3926.0,-474.0,1010.0
2554,146.0,-953.0,-136.0,-3901.0,-355.0,1010.0
2555,132.0,-1023.0,-59.0,-3920.0,-319.0,1062.0
2556,119.0,-1113.0,-1.0,-3973.0,-315.0,1103.0
2557,94.0,-1260.0,48.0,-4046.0,-332.0,1101.0
2558,759.0,-1597.0,592.0,-2825.0,72.0,662.0
2559,53.0,-841.0,-15.0,-81.0,-95.0,-27.0
2560,74.0,-812.0,-40.0,-85.0,-110.0,-7.0
2561,61.0,-856.0,17.0,-101.0,-119.0,5.0
2562,39.0,-866.0,50.0,-79.0,-129.0,-27.0
2563,31.0,-889.0,65.0,-45.0,-140.0,-35.0
2564,32.0,-884.0,76.0,15.0,-146.0,-16.0
2565,64.0,-911.0,85.0,68.0,-147.0,1.0
2566,83.0,-928.0,111.0,143.0,-123.0,-14.0
2567,87.0,-939.0,140.0,234.0,-80.0,-52.0
2568,70.0,-930.0,141.0,331.0,-33.0,-76.0
2569,71.0,-899.0,100.0,416.0,7.0,-87.0
2570,53.0,-855.0,75.0,465.0,43.0,-102.0
2571,58.0,-895.0,43.0,457.0,61.0,-116.0
2572,45.0,-912.0,40.0,476.0,77.0,-104.0
2573,-1.0,-969.0,123.0,566.0,45.0,-84.0
2574,334.0,-934.0,61.0,450.0,126.0,-707.0
2575,259.0,-961.0,19.0,412.0,214.0,-526.0
2576,177.0,-984.0,-11.0,409.0,255.0,-400.0
2577,99.0,-993.0,-3.0,444.0,182.0,-328.0
2578,101.0,-998.0,-11.0,497.0,27.0,-291.0
2579,167.0,-980.0,3.0,550.0,-120.0,-267.0
2580,241.0,-971.0,1.0,570.0,-191.0,-218.0
2581,215.0,-980.0,-5.0,570.0,-147.0,-164.0
2582,163.0,-992.0,22.0,570.0,-65.0,-171.0
2583,163.0,-998.0,23.0,558.0,-8.0,-218.0
2584,153.0,-1003.0,11.0,553.0,47.0,-254.0
2585,150.0,-976.0,52.0,561.0,84.0,-286.0
2586,1.0,-886.0,243.0,567.0,74.0,380.0
2587,151.0,-974.0,179.0,127.0,107.0,-343.0
2588,189.0,-961.0,178.0,142.0,91.0,-337.0
2589,207.0,-953.0,182.0,149.0,93.0,-306.0
2590,201.0,-936.0,199.0,152.0,99.0,-261.0
2591,203.0,-948.0,178.0,137.0,108.0,-228.0
2592,212.0,-937.0,198.0,133.0,118.0,-191.0
2593,212.0,-936.0,197.0,115.0,132.0,-147.0
2594,196.0,-945.0,195.0,96.0,140.0,-104.0
2595,181.0,-954.0,190.0,80.0,138.0,-69.0
2596,173.0,-954.0,187.0,71.0,129.0,-40.0
2597,188.0,-962.0,174.0,70.0,113.0,-8.0
2598,151.0,-960.0,204.0,48.0,115.0,-90.0
2599,165.0,-950.0,225.0,90.0,104.0,-82.0
2600,175.0,-962.0,220.0,75.0,98.0,-38.0
2601,147.0,-930.0,243.0,65.0,112.0,17.0
2602,145.0,-940.0,247.0,49.0,105.0,16.0
2603,166.0,-948.0,235.0,31.0,100.0,13.0
2604,176.0,-974.0,237.0,24.0,105.0,20.0
2605,177.0,-1047.0,176.0,23.0,122.0,18.0
2606,178.0,-1007.0,212.0,94.0,120.0,15.0
2607,164.0,-975.0,232.0,137.0,119.0,25.0
2608,158.0,-962.0,244.0,142.0,122.0,21.0
2609,151.0,-957.0,247.0,146.0,122.0,21.0
2610,168.0,-961.0,244.0,146.0,120.0,14.0
2611,162.0,-968.0,249.0,155.0,131.0,13.0
2612,165.0,-1009.0,291.0,453.0,125.0,-94.0
2613,208.0,-980.0,402.0,685.0,101.0,-230.0
2614,206.0,-988.0,408.0,697.0,121.0,-256.0
2615,205.0,-997.0,412.0,714.0,141.0,-286.0
2616,201.0,-995.0,417.0,736.0,156.0,-314.0
2617,215.0,-992.0,419.0,757.0,164.0,-341.0
2618,227.0,-992.0,423.0,777.0,179.0,-373.0
2619,225.0,-1021.0,426.0,794.0,205.0,-397.0
2620,267.0,-1030.0,427.0,829.0,218.0,-430.0
2621,303.0,-1034.0,428.0,869.0,249.0,-472.0
2622,309.0,-1050.0,434.0,911.0,302.0,-515.0
2623,219.0,-809.0,449.0,1529.0,-51.0,-541.0
2624,270.0,-793.0,347.0,1421.0,-84.0,-400.0
2625,235.0,-693.0,262.0,1317.0,-27.0,-315.0
2626,232.0,-604.0,187.0,1136.0,26.0,-275.0
2627,368.0,-541.0,-46.0,911.0,86.0,-227.0
2628,-181.0,-444.0,-209.0,193.0,761.0,165.0
2629,-39.0,-664.0,-202.0,-102.0,605.0,425.0
2630,-36.0,-483.0,-201.0,-116.0,565.0,395.0
2631,-139.0,-418.0,-194.0,-298.0,617.0,384.0
2632,-73.0,-468.0,-253.0,-553.0,521.0,524.0
2633,30.0,-418.0,-277.0,-728.0,465.0,611.0
2634,98.0,-466.0,-288.0,-966.0,498.0,641.0
2635,116.0,-419.0,-269.0,-1135.0,575.0,670.0
2636,125.0,-381.0,-244.0,-1353.0,646.0,725.0
2637,235.0,-1394.0,458.0,-2511.0,-122.0,198.0
2638,26.0,-1232.0,471.0,-1848.0,-549.0,82.0
2639,94.0,-1213.0,456.0,-1767.0,-563.0,124.0
2640,155.0,-1193.0,454.0,-1706.0,-547.0,155.0
2641,187.0,-1136.0,466.0,-1653.0,-506.0,149.0
2642,183.0,-1093.0,525.0,-1646.0,-461.0,122.0
2643,183.0,-1279.0,524.0,-1672.0,-394.0,96.0
2644,222.0,-1245.0,548.0,-1525.0,-330.0,95.0
2645,213.0,-1221.0,574.0,-1386.0,-260.0,74.0
2646,213.0,-1205.0,572.0,-1275.0,-213.0,31.0
2647,115.0,-1183.0,573.0,-1155.0,-148.0,3.0
2648,50.0,-1147.0,581.0,-1037.0,-127.0,-4.0
2649,106.0,-971.0,61.0,116.0,-320.0,-31.0
2650,52.0,-1491.0,-610.0,1477.0,162.0,-277.0
2651,99.0,-1354.0,-424.0,1718.0,165.0,-298.0
2652,120.0,-1164.0,-179.0,1794.0,184.0,-254.0
2653,95.0,-1028.0,-20.0,1758.0,201.0,-209.0
2654,34.0,-944.0,70.0,1722.0,190.0,-272.0
2655,-88.0,-837.0,106.0,1689.0,116.0,-434.0
2656,-88.0,-749.0,111.0,1573.0,-57.0,-567.0
2657,129.0,-881.0,59.0,1333.0,-251.0,-557.0
2658,305.0,-963.0,33.0,1174.0,-323.0,-416.0
2659,248.0,-978.0,49.0,1104.0,-213.0,-273.0
2660,68.0,-930.0,280.0,315.0,232.0,-80.0
2661,47.0,-952.0,231.0,240.0,238.0,-148.0
2662,122.0,-943.0,225.0,201.0,203.0,-198.0
2663,158.0,-982.0,173.0,161.0,187.0,-184.0
2664,162.0,-985.0,148.0,152.0,175.0,-139.0
2665,148.0,-939.0,204.0,196.0,118.0,-28.0
2666,95.0,-968.0,205.0,180.0,123.0,2.0
2667,90.0,-982.0,189.0,166.0,108.0,-5.0
2668,110.0,-958.0,212.0,167.0,77.0,-10.0
2669,122.0,-944.0,223.0,152.0,59.0,1.0
2670,119.0,-946.0,212.0,125.0,59.0,14.0
2671,121.0,-939.0,216.0,109.0,56.0,17.0
2672,86.0,-954.0,219.0,90.0,71.0,9.0
2673,68.0,-980.0,203.0,65.0,73.0,-23.0
2674,81.0,-978.0,197.0,70.0,35.0,-92.0
2675,143.0,-989.0,195.0,119.0,91.0,3.0
2676,143.0,-981.0,224.0,146.0,92.0,26.0
2677,124.0,-1013.0,193.0,137.0,107.0,33.0
2678,116.0,-1004.0,206.0,155.0,107.0,33.0
2679,119.0,-991.0,218.0,171.0,101.0,30.0
2680,141.0,-964.0,227.0,177.0,95.0,30.0
2681,111.0,-951.0,248.0,173.0,108.0,37.0
2682,91.0,-943.0,261.0,153.0,114.0,22.0
2683,67.0,-952.0,258.0,118.0,120.0,-11.0
2684,82.0,-948.0,270.0,88.0,113.0,-53.0
2685,115.0,-950.0,237.0,49.0,111.0,-85.0
2686,115.0,-975.0,228.0,-14.0,43.0,30.0
2687,108.0,-980.0,218.0,-10.0,45.0,34.0
2688,116.0,-983.0,223.0,2.0,42.0,35.0
2689,105.0,-980.0,221.0,12.0,46.0,40.0
2690,101.0,-976.0,232.0,23.0,44.0,41.0
2691,93.0,-966.0,236.0,31.0,41.0,39.0
2692,125.0,-955.0,232.0,39.0,27.0,35.0
2693,118.0,-960.0,239.0,42.0,27.0,46.0
2694,114.0,-959.0,245.0,40.0,31.0,54.0
2695,118.0,-964.0,245.0,32.0,34.0,54.0
2696,116.0,-975.0,242.0,26.0,41.0,53.0
2697,114.0,-962.0,246.0,26.0,68.0,-11.0
2698,93.0,-954.0,252.0,11.0,73.0,10.0
2699,85.0,-959.0,256.0,8.0,73.0,10.0
2700,79.0,-963.0,256.0,5.0,74.0,2.0
2701,79.0,-968.0,252.0,0.0,73.0,-12.0
2702,90.0,-966.0,251.0,0.0,71.0,-23.0
2703,93.0,-962.0,252.0,1.0,73.0,-29.0
2704,95.0,-960.0,250.0,1.0,75.0,-29.0
2705,96.0,-959.0,251.0,2.0,76.0,-26.0
2706,90.0,-966.0,252.0,-8.0,75.0,-13.0
2707,89.0,-959.0,255.0,1.0,70.0,-19.0
2708,90.0,-959.0,255.0,0.0,70.0,-19.0
2709,92.0,-962.0,255.0,-3.0,71.0,-18.0
2710,92.0,-966.0,253.0,-4.0,72.0,-17.0
2711,91.0,-966.0,251.0,-1.0,73.0,-15.0
2712,89.0,-961.0,253.0,2.0,74.0,-13.0