sequence,AccelerometerX,AccelerometerY,AccelerometerZ,GyroscopeX,GyroscopeY,GyroscopeZ
0,40.0,-973.0,198.0,-3.0,91.0,-2.0
1,36.0,-977.0,197.0,-6.0,96.0,-2.0
2,34.0,-973.0,202.0,-6.0,97.0,-4.0
3,34.0,-974.0,201.0,-8.0,97.0,-7.0
4,34.0,-975.0,198.0,-10.0,98.0,-10.0
5,33.0,-970.0,207.0,-7.0,95.0,-12.0
6,37.0,-977.0,197.0,-8.0,91.0,-15.0
7,31.0,-980.0,193.0,-10.0,95.0,-22.0
8,33.0,-972.0,203.0,0.0,80.0,1.0
9,32.0,-980.0,198.0,-13.0,79.0,-14.0
10,33.0,-983.0,192.0,-15.0,80.0,-17.0
11,34.0,-984.0,191.0,-13.0,84.0,-18.0
12,30.0,-976.0,199.0,-7.0,87.0,-19.0
13,29.0,-973.0,204.0,-7.0,86.0,-22.0
14,32.0,-977.0,200.0,-10.0,87.0,-24.0
15,32.0,-979.0,199.0,-12.0,87.0,-26.0
16,26.0,-978.0,199.0,-12.0,89.0,-27.0
17,32.0,-987.0,188.0,-13.0,88.0,-29.0
18,36.0,-984.0,194.0,-3.0,89.0,-31.0
19,30.0,-977.0,200.0,4.0,91.0,-28.0
20,10.0,-963.0,214.0,49.0,58.0,-38.0
21,50.0,-962.0,228.0,42.0,-28.0,-174.0
22,55.0,-967.0,228.0,34.0,-22.0,-165.0
23,65.0,-977.0,215.0,18.0,-16.0,-162.0
24,63.0,-993.0,194.0,4.0,4.0,-157.0
25,58.0,-982.0,212.0,18.0,12.0,-147.0
26,68.0,-990.0,200.0,12.0,10.0,-141.0
27,66.0,-973.0,216.0,19.0,9.0,-128.0
28,55.0,-971.0,226.0,20.0,4.0,-109.0
29,55.0,-995.0,214.0,21.0,-19.0,-100.0
30,63.0,-960.0,220.0,48.0,-23.0,-89.0
31,63.0,-969.0,221.0,-31.0,40.0,43.0
32,54.0,-984.0,199.0,-14.0,89.0,25.0
33,49.0,-986.0,206.0,1.0,91.0,19.0
34,41.0,-985.0,196.0,22.0,97.0,15.0
35,44.0,-987.0,205.0,38.0,96.0,5.0
36,38.0,-979.0,213.0,52.0,99.0,0.0
37,41.0,-984.0,211.0,49.0,98.0,-11.0
38,44.0,-971.0,227.0,54.0,94.0,-14.0
39,54.0,-969.0,223.0,48.0,87.0,-10.0
40,57.0,-983.0,206.0,42.0,97.0,-8.0
41,59.0,-976.0,219.0,54.0,95.0,-1.0
42,60.0,-974.0,218.0,57.0,100.0,9.0
43,9.0,-1073.0,220.0,252.0,217.0,97.0
44,12.0,-1233.0,323.0,1355.0,273.0,148.0
45,130.0,-1525.0,298.0,2004.0,-95.0,-175.0
46,215.0,-1623.0,269.0,2127.0,-20.0,-251.0
47,351.0,-1599.0,226.0,2327.0,76.0,-282.0
48,430.0,-1563.0,163.0,2471.0,233.0,-301.0
49,424.0,-1517.0,108.0,2573.0,460.0,-342.0
50,357.0,-1396.0,138.0,2684.0,614.0,-327.0
51,312.0,-1248.0,256.0,2766.0,660.0,-262.0
52,289.0,-1005.0,374.0,2846.0,667.0,-165.0
53,153.0,-757.0,412.0,2817.0,745.0,-175.0
54,135.0,-755.0,236.0,2511.0,742.0,-272.0
55,106.0,-820.0,29.0,2224.0,758.0,-273.0
56,238.0,-649.0,-301.0,-2495.0,473.0,-418.0
57,197.0,-784.0,-211.0,-2672.0,468.0,-478.0
58,188.0,-887.0,-124.0,-2762.0,423.0,-549.0
59,208.0,-926.0,-56.0,-2802.0,368.0,-630.0
60,271.0,-984.0,-17.0,-2883.0,314.0,-704.0
61,416.0,-1014.0,21.0,-2982.0,278.0,-770.0
62,556.0,-1120.0,84.0,-3138.0,346.0,-835.0
63,-343.0,-1412.0,417.0,-1906.0,1153.0,-1430.0
64,-194.0,-1426.0,388.0,-1864.0,1200.0,-1269.0
65,-122.0,-1441.0,387.0,-1789.0,1369.0,-1181.0
66,-178.0,-1415.0,394.0,-1671.0,1628.0,-1136.0
67,-220.0,-1404.0,413.0,-1572.0,1818.0,-1074.0
68,-401.0,-1404.0,442.0,-1477.0,2009.0,-1007.0
69,-575.0,-1371.0,485.0,-1350.0,2075.0,-929.0
70,-750.0,-1364.0,557.0,-1230.0,2030.0,-807.0
71,-888.0,-1419.0,621.0,-1102.0,1869.0,-644.0
72,-1025.0,-1422.0,654.0,-878.0,1643.0,-470.0
73,-1140.0,-1288.0,662.0,-579.0,1340.0,-295.0
74,687.0,-971.0,-37.0,828.0,-807.0,288.0
75,-434.0,-1044.0,192.0,984.0,784.0,830.0
76,263.0,-950.0,94.0,391.0,157.0,-144.0
77,270.0,-975.0,73.0,398.0,137.0,-44.0
78,274.0,-972.0,54.0,455.0,110.0,73.0
79,210.0,-946.0,99.0,534.0,115.0,170.0
80,213.0,-952.0,121.0,534.0,68.0,220.0
81,240.0,-945.0,137.0,516.0,29.0,276.0
82,176.0,-996.0,98.0,472.0,65.0,344.0
83,144.0,-1003.0,94.0,480.0,39.0,372.0
84,153.0,-961.0,157.0,528.0,-52.0,392.0
85,183.0,-967.0,138.0,495.0,-93.0,403.0
86,194.0,-988.0,115.0,474.0,-70.0,416.0
87,53.0,-953.0,238.0,69.0,106.0,242.0
88,52.0,-976.0,218.0,76.0,116.0,225.0
89,49.0,-985.0,207.0,88.0,124.0,226.0
90,43.0,-983.0,214.0,114.0,120.0,236.0
91,42.0,-995.0,206.0,124.0,117.0,246.0
92,51.0,-1035.0,174.0,126.0,123.0,250.0
93,38.0,-942.0,256.0,191.0,109.0,274.0
94,17.0,-949.0,254.0,160.0,118.0,283.0
95,1.0,-945.0,260.0,133.0,134.0,262.0
96,0.0,-953.0,254.0,109.0,140.0,232.0
97,11.0,-960.0,250.0,92.0,145.0,202.0
98,33.0,-984.0,226.0,78.0,153.0,186.0
99,2.0,-970.0,236.0,112.0,175.0,206.0
100,-32.0,-973.0,271.0,193.0,173.0,221.0
101,-70.0,-1040.0,280.0,245.0,279.0,197.0
102,-44.0,-1099.0,267.0,238.0,251.0,202.0
103,-25.0,-1140.0,268.0,250.0,232.0,244.0
104,44.0,-1135.0,282.0,310.0,189.0,307.0
105,-12.0,-1189.0,295.0,363.0,278.0,370.0
106,-63.0,-1216.0,309.0,469.0,346.0,419.0
107,-116.0,-1299.0,335.0,605.0,374.0,476.0
108,-257.0,-1419.0,335.0,804.0,407.0,594.0
109,-361.0,-1354.0,353.0,1082.0,346.0,753.0
110,-301.0,-1440.0,370.0,1174.0,143.0,813.0
111,-103.0,-1540.0,372.0,1263.0,-59.0,804.0
112,-109.0,-1698.0,393.0,1517.0,9.0,564.0
113,1031.0,-1369.0,-297.0,-2369.0,-1159.0,196.0
114,660.0,-729.0,-123.0,-1014.0,-379.0,-89.0
115,522.0,-353.0,-141.0,-826.0,-376.0,-370.0
116,435.0,-327.0,-160.0,-1113.0,-477.0,-595.0
117,359.0,-352.0,-175.0,-1354.0,-567.0,-694.0
118,385.0,-327.0,-185.0,-1550.0,-725.0,-714.0
119,440.0,-400.0,-183.0,-1840.0,-872.0,-724.0
120,479.0,-517.0,-154.0,-2079.0,-978.0,-777.0
121,470.0,-594.0,-110.0,-2202.0,-1040.0,-900.0
122,475.0,-635.0,-81.0,-2281.0,-1099.0,-1041.0
123,506.0,-628.0,-59.0,-2362.0,-1131.0,-1146.0
124,542.0,-650.0,-44.0,-2524.0,-1082.0,-1177.0
125,617.0,-774.0,-40.0,-2764.0,-986.0,-1173.0
126,604.0,-946.0,9.0,-2946.0,-761.0,-1224.0
127,556.0,-1093.0,66.0,-3029.0,-500.0,-1335.0
128,-284.0,-1878.0,429.0,-3023.0,-580.0,-2232.0
129,254.0,-1019.0,1139.0,-1397.0,-716.0,-607.0
130,-357.0,-1528.0,216.0,1872.0,-1138.0,1569.0
131,1681.0,-1959.0,-1129.0,834.0,-1891.0,912.0
132,737.0,-1959.0,-1775.0,1264.0,42.0,1279.0
133,-445.0,-1329.0,-351.0,3581.0,829.0,1626.0
134,-249.0,-310.0,719.0,3344.0,-122.0,1081.0
135,-207.0,-870.0,340.0,1485.0,-7.0,410.0
136,-12.0,-913.0,-4.0,1194.0,119.0,26.0
137,200.0,-1129.0,-212.0,1037.0,-159.0,-62.0
138,378.0,-924.0,13.0,1404.0,-448.0,71.0
139,472.0,-612.0,248.0,1586.0,-379.0,161.0
140,112.0,-939.0,196.0,287.0,47.0,275.0
141,123.0,-972.0,169.0,226.0,64.0,246.0
142,91.0,-969.0,181.0,216.0,86.0,220.0
143,110.0,-973.0,157.0,193.0,89.0,187.0
144,113.0,-975.0,167.0,178.0,100.0,166.0
145,109.0,-957.0,192.0,173.0,102.0,171.0
146,122.0,-956.0,190.0,140.0,96.0,180.0
147,149.0,-966.0,170.0,111.0,97.0,198.0
148,108.0,-972.0,171.0,104.0,136.0,223.0
149,101.0,-965.0,188.0,110.0,137.0,230.0
150,102.0,-983.0,169.0,99.0,137.0,226.0
151,76.0,-990.0,180.0,49.0,183.0,168.0
152,65.0,-985.0,191.0,71.0,188.0,186.0
153,45.0,-963.0,208.0,97.0,188.0,204.0
154,29.0,-991.0,198.0,89.0,182.0,202.0
155,28.0,-1030.0,159.0,101.0,179.0,191.0
156,43.0,-1056.0,142.0,150.0,159.0,193.0
157,59.0,-991.0,196.0,242.0,126.0,229.0
158,54.0,-986.0,207.0,249.0,124.0,267.0
159,36.0,-978.0,211.0,242.0,143.0,282.0
160,22.0,-963.0,225.0,247.0,153.0,286.0
161,17.0,-972.0,223.0,235.0,152.0,277.0
162,-25.0,-1063.0,262.0,407.0,258.0,352.0
163,-41.0,-1032.0,274.0,427.0,252.0,370.0
164,-55.0,-1014.0,288.0,427.0,237.0,374.0
165,-37.0,-1035.0,295.0,423.0,216.0,381.0
166,1.0,-1048.0,292.0,458.0,211.0,413.0
167,-4.0,-1084.0,303.0,524.0,243.0,458.0
168,-10.0,-1125.0,307.0,621.0,276.0,506.0
169,-17.0,-1146.0,306.0,732.0,297.0,547.0
170,-11.0,-1167.0,301.0,828.0,301.0,581.0
171,-90.0,-1296.0,324.0,873.0,345.0,592.0
172,-82.0,-1356.0,368.0,972.0,299.0,606.0
173,937.0,-1537.0,-204.0,3098.0,505.0,783.0
174,-342.0,-48.0,-60.0,580.0,97.0,298.0
175,712.0,-323.0,-356.0,-362.0,-694.0,-293.0
176,625.0,-372.0,-400.0,-736.0,-480.0,-486.0
177,513.0,-404.0,-418.0,-987.0,-327.0,-633.0
178,443.0,-399.0,-406.0,-1182.0,-287.0,-745.0
179,413.0,-386.0,-374.0,-1420.0,-274.0,-854.0
180,336.0,-394.0,-320.0,-1690.0,-229.0,-932.0
181,236.0,-477.0,-273.0,-1985.0,-231.0,-977.0
182,197.0,-569.0,-230.0,-2220.0,-332.0,-1001.0
183,204.0,-642.0,-166.0,-2394.0,-447.0,-1024.0
184,305.0,-1633.0,221.0,-3298.0,-593.0,-1698.0
185,-17.0,-1656.0,301.0,-3382.0,-480.0,-1770.0
186,-186.0,-1880.0,338.0,-3538.0,-532.0,-1770.0
187,-454.0,-1959.0,446.0,-3494.0,-451.0,-1712.0
188,-502.0,-1959.0,542.0,-3335.0,-524.0,-1525.0
189,-123.0,-1959.0,621.0,-3083.0,-781.0,-1314.0
190,-118.0,-1952.0,797.0,-2754.0,-451.0,-1197.0
191,-7.0,-1910.0,892.0,-2520.0,11.0,-1108.0
192,11.0,-1647.0,1011.0,-2098.0,661.0,-941.0
193,13.0,-1198.0,1096.0,-1748.0,1368.0,-701.0
194,248.0,-1086.0,1120.0,-1734.0,1870.0,-460.0
195,-378.0,-1165.0,558.0,2063.0,-1783.0,1172.0
196,99.0,-1031.0,79.0,500.0,304.0,79.0
197,102.0,-1011.0,98.0,505.0,277.0,86.0
198,118.0,-976.0,132.0,512.0,222.0,115.0
199,110.0,-965.0,148.0,495.0,188.0,144.0
200,103.0,-963.0,155.0,477.0,157.0,157.0
201,101.0,-923.0,196.0,460.0,119.0,170.0
202,113.0,-917.0,212.0,406.0,71.0,203.0
203,76.0,-995.0,141.0,312.0,105.0,206.0
204,78.0,-961.0,184.0,322.0,54.0,211.0
205,108.0,-957.0,189.0,306.0,2.0,224.0
206,99.0,-972.0,175.0,272.0,28.0,224.0
207,60.0,-990.0,179.0,22.0,84.0,122.0
208,20.0,-973.0,219.0,190.0,120.0,179.0
209,22.0,-1005.0,210.0,174.0,126.0,164.0
210,44.0,-1016.0,196.0,183.0,136.0,154.0
211,49.0,-972.0,222.0,230.0,144.0,165.0
212,37.0,-985.0,228.0,231.0,164.0,174.0
213,37.0,-1025.0,219.0,230.0,189.0,170.0
214,61.0,-1003.0,232.0,268.0,197.0,176.0
215,28.0,-989.0,235.0,293.0,244.0,193.0
216,-10.0,-1018.0,235.0,293.0,294.0,182.0
217,102.0,-1202.0,308.0,966.0,101.0,428.0
218,63.0,-1191.0,316.0,1056.0,176.0,431.0
219,-41.0,-1281.0,324.0,1094.0,245.0,395.0
220,-188.0,-1305.0,370.0,1176.0,262.0,344.0
221,-229.0,-1388.0,424.0,1214.0,165.0,303.0
222,-70.0,-1490.0,411.0,1268.0,17.0,326.0
223,63.0,-1515.0,375.0,1398.0,-16.0,347.0
224,-32.0,-1593.0,400.0,1507.0,96.0,306.0
225,-4.0,-1693.0,392.0,1620.0,69.0,252.0
226,41.0,-1816.0,402.0,1782.0,36.0,158.0
227,42.0,-1954.0,368.0,1973.0,56.0,34.0
228,294.0,-1951.0,216.0,2601.0,124.0,-77.0
229,110.0,-1166.0,178.0,-3350.0,-371.0,-1078.0
230,-176.0,-1687.0,642.0,-2507.0,-1041.0,-1133.0
231,-92.0,-1701.0,664.0,-2610.0,-1112.0,-861.0
232,97.0,-1723.0,624.0,-2650.0,-1076.0,-661.0
233,90.0,-1662.0,750.0,-2567.0,-784.0,-712.0
234,58.0,-1815.0,832.0,-2573.0,-404.0,-848.0
235,165.0,-1784.0,925.0,-2278.0,-21.0,-780.0
236,214.0,-1446.0,1062.0,-1777.0,537.0,-620.0
237,364.0,-1084.0,1147.0,-1461.0,1061.0,-466.0
238,359.0,-1139.0,1149.0,-1430.0,1625.0,-403.0
239,-272.0,-1300.0,1133.0,-1269.0,2359.0,-571.0
240,-889.0,-1241.0,1167.0,-854.0,2593.0,-646.0
241,-26.0,-476.0,285.0,1997.0,831.0,979.0
242,193.0,-943.0,152.0,274.0,160.0,255.0
243,238.0,-949.0,145.0,267.0,200.0,247.0
244,182.0,-942.0,161.0,271.0,284.0,275.0
245,85.0,-946.0,171.0,255.0,354.0,285.0
246,84.0,-975.0,170.0,229.0,325.0,250.0
247,98.0,-971.0,176.0,224.0,287.0,211.0
248,74.0,-980.0,160.0,209.0,278.0,197.0
249,58.0,-992.0,155.0,197.0,253.0,181.0
250,49.0,-998.0,167.0,203.0,193.0,161.0
251,83.0,-1004.0,157.0,201.0,130.0,134.0
252,77.0,-1006.0,170.0,217.0,107.0,112.0
253,91.0,-985.0,197.0,122.0,152.0,131.0
254,52.0,-961.0,225.0,176.0,134.0,241.0
255,64.0,-946.0,234.0,180.0,130.0,250.0
256,73.0,-943.0,238.0,176.0,136.0,269.0
257,59.0,-954.0,241.0,173.0,152.0,293.0
258,48.0,-1013.0,217.0,161.0,174.0,303.0
259,37.0,-1029.0,205.0,184.0,194.0,310.0
260,-4.0,-984.0,242.0,236.0,198.0,319.0
261,-10.0,-976.0,246.0,225.0,180.0,305.0
262,-27.0,-961.0,257.0,211.0,185.0,284.0
263,-31.0,-967.0,262.0,186.0,181.0,257.0
264,-8.0,-963.0,259.0,170.0,171.0,229.0
265,-2.0,-987.0,245.0,151.0,185.0,212.0
266,-7.0,-977.0,250.0,161.0,196.0,206.0
267,-20.0,-968.0,259.0,172.0,194.0,197.0
268,-22.0,-977.0,264.0,169.0,192.0,175.0
269,-33.0,-1010.0,268.0,158.0,217.0,128.0
270,4.0,-1740.0,347.0,1601.0,410.0,310.0
271,-148.0,-1805.0,330.0,1777.0,420.0,294.0
272,-173.0,-1911.0,351.0,1964.0,296.0,281.0
273,-87.0,-1920.0,306.0,2241.0,156.0,237.0
274,79.0,-1863.0,257.0,2498.0,57.0,216.0
275,360.0,-1885.0,119.0,2627.0,-31.0,200.0
276,446.0,-1855.0,-3.0,2833.0,196.0,149.0
277,331.0,-1926.0,-36.0,2977.0,542.0,95.0
278,461.0,-1939.0,-100.0,3157.0,681.0,82.0
279,626.0,-1634.0,-158.0,3597.0,894.0,275.0
280,646.0,-1229.0,-256.0,3911.0,1172.0,602.0
281,549.0,-909.0,-109.0,3822.0,1291.0,671.0
282,450.0,-554.0,227.0,3596.0,1099.0,587.0
283,448.0,-243.0,374.0,3227.0,845.0,437.0
284,532.0,-10.0,189.0,2777.0,776.0,175.0
285,217.0,-598.0,-122.0,-2974.0,-370.0,-581.0
286,-663.0,-1115.0,508.0,-804.0,2101.0,-885.0
287,-715.0,-979.0,389.0,-597.0,1900.0,-753.0
288,-703.0,-844.0,352.0,-483.0,1632.0,-546.0
289,-561.0,-1090.0,303.0,-629.0,1320.0,-415.0
290,-564.0,-1219.0,305.0,-481.0,1123.0,-338.0
291,-627.0,-1081.0,351.0,-126.0,927.0,-237.0
292,-613.0,-1085.0,337.0,3.0,631.0,-136.0
293,-570.0,-1163.0,317.0,117.0,344.0,-48.0
294,-488.0,-1125.0,317.0,329.0,53.0,22.0
295,-441.0,-1212.0,337.0,488.0,-184.0,84.0
296,256.0,-820.0,376.0,1073.0,-245.0,669.0
297,210.0,-911.0,181.0,357.0,57.0,535.0
298,109.0,-982.0,171.0,108.0,70.0,182.0
299,113.0,-989.0,167.0,89.0,71.0,201.0
300,109.0,-990.0,164.0,77.0,70.0,222.0
301,98.0,-975.0,174.0,81.0,73.0,242.0
302,99.0,-971.0,175.0,75.0,75.0,246.0
303,106.0,-972.0,172.0,73.0,80.0,252.0
304,88.0,-978.0,160.0,78.0,94.0,267.0
305,69.0,-981.0,167.0,89.0,96.0,275.0
306,64.0,-971.0,180.0,97.0,86.0,269.0
307,55.0,-962.0,195.0,92.0,78.0,256.0
308,25.0,-965.0,198.0,68.0,90.0,229.0
309,50.0,-958.0,201.0,31.0,62.0,162.0
310,23.0,-985.0,203.0,173.0,190.0,189.0
311,13.0,-1055.0,186.0,251.0,214.0,194.0
312,3.0,-1045.0,224.0,321.0,246.0,193.0
313,4.0,-1006.0,243.0,375.0,260.0,192.0
314,-20.0,-1032.0,237.0,352.0,319.0,175.0
315,-14.0,-1041.0,226.0,351.0,350.0,173.0
316,-26.0,-1069.0,229.0,364.0,363.0,194.0
317,19.0,-1144.0,200.0,364.0,334.0,225.0
318,78.0,-1109.0,236.0,420.0,305.0,317.0
319,64.0,-1118.0,241.0,422.0,332.0,440.0
320,42.0,-1174.0,249.0,419.0,371.0,547.0
321,4.0,-1259.0,248.0,473.0,422.0,648.0
322,-177.0,-1468.0,320.0,819.0,518.0,845.0
323,773.0,-576.0,-305.0,-496.0,-1047.0,213.0
324,715.0,-272.0,-232.0,-388.0,-671.0,105.0
325,680.0,-274.0,-221.0,-780.0,-456.0,-86.0
326,588.0,-415.0,-235.0,-1151.0,-213.0,-202.0
327,472.0,-446.0,-213.0,-1272.0,-34.0,-213.0
328,377.0,-405.0,-174.0,-1347.0,37.0,-211.0
329,302.0,-393.0,-141.0,-1501.0,41.0,-256.0
330,193.0,-413.0,-95.0,-1689.0,27.0,-334.0
331,112.0,-479.0,-60.0,-1896.0,-72.0,-405.0
332,48.0,-554.0,-39.0,-2063.0,-226.0,-443.0
333,26.0,-605.0,-22.0,-2175.0,-422.0,-438.0
334,384.0,-1486.0,384.0,-2732.0,-245.0,-1325.0
335,-529.0,-1246.0,836.0,-968.0,652.0,-207.0
336,-1335.0,-1192.0,954.0,-553.0,781.0,-400.0
337,-1525.0,-1192.0,966.0,-291.0,-43.0,-252.0
338,-1142.0,-1176.0,862.0,-44.0,-1081.0,103.0
339,-785.0,-1052.0,746.0,229.0,-1675.0,350.0
340,-465.0,-1184.0,678.0,326.0,-2016.0,397.0
341,-14.0,-1945.0,621.0,547.0,-2303.0,490.0
342,470.0,-748.0,173.0,2531.0,-2079.0,659.0
343,288.0,-175.0,702.0,2644.0,-1477.0,716.0
344,781.0,-1557.0,-87.0,748.0,-1472.0,533.0
345,1136.0,-1821.0,-592.0,1159.0,-889.0,602.0
346,283.0,-963.0,38.0,429.0,48.0,73.0
347,301.0,-983.0,21.0,507.0,0.0,212.0
348,284.0,-980.0,23.0,615.0,15.0,333.0
349,256.0,-1002.0,21.0,697.0,51.0,414.0
350,206.0,-1002.0,49.0,768.0,78.0,473.0
351,176.0,-957.0,97.0,821.0,34.0,527.0
352,175.0,-905.0,177.0,803.0,-26.0,566.0
353,129.0,-878.0,234.0,709.0,-13.0,586.0
354,64.0,-949.0,195.0,543.0,60.0,534.0
355,17.0,-972.0,189.0,455.0,48.0,449.0
356,52.0,-946.0,197.0,413.0,-23.0,376.0
357,61.0,-960.0,201.0,264.0,1.0,226.0
358,64.0,-977.0,207.0,156.0,151.0,230.0
359,52.0,-976.0,207.0,154.0,156.0,230.0
360,43.0,-987.0,202.0,147.0,160.0,221.0
361,47.0,-986.0,200.0,150.0,154.0,213.0
362,47.0,-970.0,209.0,164.0,142.0,213.0
363,39.0,-969.0,212.0,164.0,142.0,211.0