sequence,AccelerometerX,AccelerometerY,AccelerometerZ,GyroscopeX,GyroscopeY,GyroscopeZ
0,159.0,-979.0,128.0,-13.0,55.0,-59.0
1,151.0,-976.0,135.0,-11.0,59.0,-60.0
2,146.0,-973.0,136.0,-9.0,63.0,-64.0
3,147.0,-972.0,134.0,-7.0,61.0,-68.0
4,148.0,-977.0,132.0,-4.0,58.0,-69.0
5,157.0,-980.0,129.0,-1.0,48.0,-70.0
6,153.0,-976.0,130.0,8.0,48.0,-67.0
7,154.0,-970.0,136.0,16.0,44.0,-68.0
8,147.0,-956.0,144.0,25.0,45.0,-73.0
9,188.0,-978.0,135.0,13.0,-37.0,-139.0
10,168.0,-976.0,133.0,-11.0,-34.0,-165.0
11,215.0,-945.0,155.0,-1.0,-34.0,-141.0
12,210.0,-969.0,130.0,-18.0,-20.0,-126.0
13,204.0,-977.0,128.0,-14.0,-4.0,-114.0
14,193.0,-978.0,121.0,2.0,3.0,-99.0
15,208.0,-980.0,116.0,13.0,-6.0,-86.0
16,188.0,-971.0,140.0,29.0,-4.0,-77.0
17,175.0,-982.0,140.0,9.0,-6.0,-83.0
18,164.0,-982.0,135.0,-2.0,-12.0,-99.0
19,184.0,-953.0,150.0,67.0,87.0,42.0
20,198.0,-968.0,136.0,50.0,64.0,35.0
21,187.0,-971.0,135.0,50.0,73.0,32.0
22,197.0,-970.0,135.0,53.0,66.0,27.0
23,201.0,-956.0,148.0,64.0,62.0,32.0
24,232.0,-949.0,144.0,69.0,48.0,52.0
25,211.0,-963.0,135.0,71.0,65.0,80.0
26,198.0,-960.0,154.0,79.0,67.0,92.0
27,199.0,-974.0,135.0,70.0,64.0,97.0
28,203.0,-984.0,127.0,74.0,69.0,104.0
29,196.0,-960.0,152.0,99.0,70.0,119.0
30,190.0,-971.0,158.0,78.0,104.0,142.0
31,183.0,-1083.0,169.0,169.0,173.0,245.0
32,129.0,-1097.0,182.0,196.0,177.0,242.0
33,104.0,-1123.0,190.0,229.0,143.0,207.0
34,94.0,-1184.0,185.0,272.0,113.0,149.0
35,133.0,-1223.0,175.0,358.0,63.0,92.0
36,143.0,-1244.0,168.0,504.0,69.0,54.0
37,130.0,-1330.0,176.0,669.0,83.0,49.0
38,67.0,-1556.0,242.0,899.0,70.0,133.0
39,-12.0,-1154.0,219.0,1397.0,31.0,330.0
40,233.0,-1231.0,127.0,1307.0,-127.0,230.0
41,239.0,-1317.0,199.0,1248.0,-19.0,59.0
42,253.0,-1433.0,276.0,1321.0,43.0,-32.0
43,261.0,-1496.0,285.0,1448.0,127.0,-50.0
44,235.0,-1567.0,221.0,1575.0,221.0,-64.0
45,276.0,-1628.0,176.0,1706.0,253.0,-123.0
46,334.0,-1698.0,183.0,1852.0,328.0,-208.0
47,275.0,-1726.0,183.0,2025.0,496.0,-284.0
48,362.0,-1753.0,235.0,2227.0,491.0,-375.0
49,403.0,-1793.0,315.0,2455.0,547.0,-531.0
50,-26.0,-124.0,-730.0,-157.0,479.0,197.0
51,135.0,-241.0,-673.0,-859.0,234.0,162.0
52,60.0,-210.0,-637.0,-1077.0,336.0,159.0
53,20.0,-229.0,-603.0,-1367.0,344.0,186.0
54,8.0,-285.0,-569.0,-1659.0,324.0,220.0
55,34.0,-395.0,-537.0,-1935.0,301.0,235.0
56,18.0,-507.0,-492.0,-2137.0,315.0,205.0
57,359.0,-1314.0,108.0,-3164.0,-553.0,5.0
58,380.0,-1346.0,179.0,-3143.0,-470.0,-58.0
59,367.0,-1397.0,231.0,-3147.0,-392.0,-122.0
60,355.0,-1492.0,258.0,-3147.0,-337.0,-184.0
61,290.0,-1591.0,302.0,-3091.0,-274.0,-252.0
62,179.0,-1584.0,370.0,-2959.0,-227.0,-305.0
63,127.0,-1558.0,416.0,-2871.0,-259.0,-296.0
64,97.0,-1459.0,428.0,-2828.0,-279.0,-271.0
65,-49.0,-1358.0,488.0,-2908.0,-255.0,-262.0
66,61.0,-1602.0,458.0,-3199.0,-432.0,-213.0
67,124.0,-1769.0,475.0,-3195.0,-453.0,-135.0
68,-89.0,-1024.0,404.0,95.0,413.0,44.0
69,-91.0,-1001.0,279.0,214.0,302.0,47.0
70,-70.0,-986.0,222.0,315.0,167.0,35.0
71,-22.0,-1066.0,209.0,387.0,30.0,20.0
72,6.0,-1137.0,253.0,551.0,-50.0,-11.0
73,31.0,-1173.0,337.0,807.0,-114.0,-16.0
74,69.0,-1203.0,445.0,1134.0,-166.0,51.0
75,114.0,-1184.0,513.0,1511.0,-177.0,138.0
76,92.0,-859.0,532.0,1909.0,-97.0,168.0
77,98.0,-932.0,159.0,789.0,-127.0,-41.0
78,100.0,-918.0,170.0,642.0,-200.0,-169.0
79,116.0,-951.0,185.0,564.0,-158.0,-261.0
80,187.0,-915.0,197.0,474.0,-125.0,-314.0
81,216.0,-968.0,115.0,330.0,-30.0,-322.0
82,167.0,-1005.0,120.0,271.0,91.0,-332.0
83,133.0,-943.0,191.0,293.0,97.0,-334.0
84,156.0,-921.0,162.0,247.0,15.0,-312.0
85,255.0,-897.0,181.0,205.0,-69.0,-279.0
86,150.0,-937.0,185.0,136.0,-13.0,-238.0
87,190.0,-970.0,164.0,58.0,70.0,-167.0
88,227.0,-953.0,149.0,41.0,219.0,120.0
89,196.0,-1002.0,151.0,123.0,153.0,79.0
90,202.0,-995.0,158.0,153.0,146.0,98.0
91,241.0,-987.0,151.0,179.0,129.0,134.0
92,266.0,-953.0,155.0,225.0,131.0,185.0
93,201.0,-928.0,186.0,268.0,184.0,227.0
94,172.0,-964.0,180.0,253.0,204.0,237.0
95,162.0,-966.0,196.0,251.0,201.0,236.0
96,162.0,-964.0,204.0,243.0,196.0,234.0
97,168.0,-967.0,203.0,225.0,195.0,229.0
98,120.0,-1008.0,233.0,393.0,66.0,-170.0
99,154.0,-1001.0,230.0,441.0,23.0,-167.0
100,176.0,-1024.0,238.0,465.0,10.0,-161.0
101,188.0,-1027.0,245.0,498.0,8.0,-168.0
102,184.0,-1043.0,251.0,522.0,21.0,-176.0
103,169.0,-1061.0,258.0,551.0,36.0,-186.0
104,149.0,-1075.0,263.0,584.0,47.0,-201.0
105,117.0,-1063.0,264.0,631.0,50.0,-204.0
106,124.0,-1116.0,261.0,657.0,34.0,-218.0
107,112.0,-1158.0,281.0,726.0,52.0,-227.0
108,208.0,-1188.0,279.0,809.0,-3.0,-235.0
109,374.0,-993.0,326.0,2991.0,-354.0,-91.0
110,-265.0,-86.0,-454.0,-1351.0,1239.0,1262.0
111,-169.0,-350.0,-486.0,-2594.0,366.0,1239.0
112,9.0,-639.0,-522.0,-2938.0,-26.0,1163.0
113,64.0,-671.0,-436.0,-2842.0,-196.0,1106.0
114,29.0,-659.0,-324.0,-2787.0,-370.0,1082.0
115,213.0,-614.0,-301.0,-2844.0,-735.0,1054.0
116,465.0,-602.0,-290.0,-3018.0,-973.0,1001.0
117,715.0,-787.0,-261.0,-3327.0,-1028.0,948.0
118,803.0,-982.0,-140.0,-3465.0,-853.0,874.0
119,712.0,-1055.0,23.0,-3397.0,-602.0,780.0
120,628.0,-1417.0,339.0,-3123.0,-398.0,133.0
121,543.0,-1461.0,340.0,-3174.0,-97.0,110.0
122,285.0,-1522.0,384.0,-3173.0,204.0,63.0
123,102.0,-1604.0,420.0,-3141.0,286.0,40.0
124,177.0,-1570.0,550.0,-2744.0,-63.0,30.0
125,337.0,-1565.0,609.0,-2613.0,-130.0,-55.0
126,474.0,-1450.0,674.0,-2393.0,-87.0,-189.0
127,511.0,-1364.0,732.0,-2223.0,64.0,-394.0
128,390.0,-1395.0,717.0,-2129.0,308.0,-617.0
129,74.0,-1365.0,781.0,-1938.0,596.0,-715.0
130,136.0,-1052.0,366.0,533.0,-392.0,30.0
131,66.0,-1559.0,482.0,678.0,-360.0,-18.0
132,156.0,-1506.0,480.0,1530.0,-468.0,-105.0
133,76.0,-809.0,625.0,2627.0,-301.0,-88.0
134,-38.0,-743.0,577.0,2426.0,-209.0,-85.0
135,223.0,-1150.0,151.0,1942.0,-370.0,-160.0
136,700.0,-1788.0,-839.0,1496.0,-436.0,-150.0
137,715.0,-1959.0,-1951.0,1207.0,152.0,85.0
138,-285.0,-1847.0,-1013.0,2751.0,1264.0,-258.0
139,-5.0,-512.0,1009.0,3707.0,-8.0,-151.0
140,111.0,-422.0,889.0,2183.0,71.0,-241.0
141,260.0,-757.0,230.0,1391.0,530.0,-500.0
142,-50.0,-1097.0,-62.0,1002.0,882.0,-559.0
143,73.0,-1002.0,14.0,1050.0,438.0,-594.0
144,161.0,-913.0,20.0,1047.0,224.0,-602.0
145,262.0,-968.0,80.0,380.0,23.0,-50.0
146,173.0,-990.0,127.0,291.0,103.0,219.0
147,174.0,-953.0,181.0,207.0,135.0,263.0
148,146.0,-961.0,183.0,191.0,164.0,240.0
149,155.0,-961.0,186.0,172.0,171.0,205.0
150,160.0,-972.0,182.0,151.0,183.0,181.0
151,126.0,-977.0,186.0,144.0,218.0,163.0
152,132.0,-974.0,196.0,137.0,204.0,133.0
153,159.0,-985.0,186.0,125.0,189.0,110.0
154,171.0,-995.0,179.0,127.0,200.0,104.0
155,162.0,-1002.0,188.0,145.0,210.0,108.0
156,126.0,-993.0,204.0,164.0,227.0,108.0
157,131.0,-991.0,208.0,164.0,210.0,95.0
158,114.0,-1094.0,227.0,642.0,-31.0,-261.0
159,130.0,-1069.0,240.0,746.0,-108.0,-266.0
160,145.0,-1032.0,243.0,826.0,-155.0,-273.0
161,164.0,-1012.0,242.0,867.0,-187.0,-248.0
162,173.0,-1000.0,253.0,903.0,-185.0,-205.0
163,225.0,-1019.0,248.0,904.0,-205.0,-163.0
164,315.0,-1015.0,244.0,925.0,-196.0,-149.0
165,283.0,-1030.0,263.0,942.0,-67.0,-160.0
166,294.0,-1054.0,275.0,936.0,11.0,-178.0
167,229.0,-1169.0,300.0,911.0,126.0,-202.0
168,240.0,-1928.0,438.0,3766.0,599.0,-645.0
169,668.0,-187.0,-294.0,3250.0,-564.0,295.0
170,1033.0,2.0,-519.0,2452.0,-499.0,146.0
171,771.0,-72.0,-470.0,1459.0,259.0,-65.0
172,314.0,-52.0,-577.0,12.0,1236.0,-39.0
173,-330.0,-135.0,-522.0,-565.0,1639.0,280.0
174,-342.0,-179.0,-551.0,-1149.0,938.0,463.0
175,-194.0,-207.0,-570.0,-1621.0,337.0,432.0
176,-184.0,-228.0,-584.0,-1938.0,132.0,371.0
177,-146.0,-237.0,-604.0,-2220.0,-58.0,355.0
178,-38.0,-257.0,-609.0,-2492.0,-279.0,433.0
179,89.0,-380.0,-607.0,-2790.0,-461.0,487.0
180,212.0,-482.0,-597.0,-2943.0,-526.0,417.0
181,236.0,-435.0,-531.0,-2945.0,-457.0,292.0
182,133.0,-368.0,-420.0,-3077.0,-347.0,232.0
183,133.0,-1682.0,513.0,-3571.0,-79.0,21.0
184,106.0,-1675.0,544.0,-3447.0,-60.0,35.0
185,126.0,-1702.0,567.0,-3379.0,-54.0,75.0
186,188.0,-1775.0,582.0,-3325.0,-32.0,89.0
187,190.0,-1770.0,591.0,-3176.0,73.0,33.0
188,55.0,-1597.0,607.0,-2975.0,218.0,-69.0
189,2.0,-1465.0,599.0,-2962.0,182.0,-117.0
190,55.0,-1483.0,574.0,-3102.0,63.0,-55.0
191,112.0,-1508.0,587.0,-3166.0,19.0,65.0
192,90.0,-1552.0,628.0,-3172.0,31.0,88.0
193,124.0,-1667.0,745.0,-3141.0,-62.0,-65.0
194,-239.0,-1654.0,538.0,696.0,227.0,106.0
195,-232.0,-1660.0,438.0,1551.0,-101.0,-144.0
196,-166.0,-958.0,554.0,2689.0,-343.0,-342.0
197,80.0,-945.0,572.0,2589.0,-661.0,-391.0
198,459.0,-1010.0,368.0,2325.0,-814.0,-428.0
199,1096.0,-1845.0,-531.0,2134.0,-899.0,-322.0
200,973.0,-1675.0,-1376.0,2293.0,-738.0,165.0
201,206.0,-1799.0,-1449.0,2157.0,1258.0,-101.0
202,-751.0,-1361.0,77.0,2686.0,1198.0,-506.0
203,197.0,-568.0,788.0,2481.0,-630.0,-398.0
204,287.0,-795.0,404.0,1719.0,-43.0,-558.0
205,282.0,-978.0,55.0,359.0,14.0,68.0
206,296.0,-956.0,62.0,388.0,-36.0,74.0
207,304.0,-942.0,78.0,385.0,-59.0,87.0
208,330.0,-916.0,93.0,374.0,-86.0,106.0
209,331.0,-916.0,93.0,337.0,-66.0,128.0
210,333.0,-916.0,94.0,308.0,-46.0,152.0
211,260.0,-928.0,114.0,293.0,3.0,169.0
212,233.0,-962.0,101.0,258.0,-3.0,147.0
213,278.0,-972.0,92.0,249.0,-56.0,117.0
214,212.0,-952.0,135.0,7.0,211.0,87.0
215,300.0,-941.0,132.0,191.0,109.0,198.0
216,268.0,-928.0,149.0,204.0,147.0,236.0
217,239.0,-931.0,146.0,202.0,170.0,257.0
218,232.0,-945.0,150.0,197.0,171.0,259.0
219,236.0,-969.0,129.0,187.0,174.0,251.0
220,224.0,-976.0,137.0,193.0,193.0,237.0
221,222.0,-972.0,148.0,193.0,205.0,218.0
222,224.0,-990.0,134.0,180.0,217.0,202.0
223,200.0,-983.0,151.0,193.0,234.0,187.0
224,211.0,-978.0,159.0,193.0,220.0,173.0
225,185.0,-981.0,173.0,194.0,226.0,165.0
226,295.0,-1063.0,204.0,726.0,14.0,-30.0
227,384.0,-1959.0,65.0,3047.0,842.0,-898.0
228,168.0,-1912.0,-3.0,3319.0,1137.0,-979.0
229,142.0,-1873.0,128.0,3573.0,1126.0,-973.0
230,135.0,-1710.0,205.0,3931.0,1064.0,-877.0
231,66.0,-1296.0,25.0,4344.0,1088.0,-694.0
232,270.0,-979.0,-110.0,4254.0,844.0,-478.0
233,297.0,-1013.0,-19.0,3701.0,719.0,-333.0
234,167.0,-1149.0,66.0,3346.0,726.0,-234.0
235,216.0,-1141.0,68.0,3386.0,530.0,-120.0
236,321.0,-957.0,17.0,3569.0,381.0,-30.0
237,332.0,-770.0,-14.0,3600.0,409.0,8.0
238,-58.0,-277.0,-421.0,-2805.0,-146.0,965.0
239,255.0,-1557.0,339.0,-3847.0,-1.0,461.0
240,261.0,-1540.0,356.0,-3716.0,-90.0,337.0
241,266.0,-1512.0,370.0,-3644.0,-183.0,172.0
242,245.0,-1587.0,393.0,-3658.0,-282.0,-47.0
243,283.0,-1649.0,388.0,-3648.0,-415.0,-269.0
244,271.0,-1713.0,422.0,-3628.0,-450.0,-416.0
245,287.0,-1838.0,473.0,-3606.0,-430.0,-476.0
246,285.0,-1831.0,541.0,-3446.0,-328.0,-511.0
247,221.0,-1672.0,586.0,-3264.0,-137.0,-554.0
248,70.0,-1596.0,610.0,-3270.0,75.0,-550.0
249,114.0,-1659.0,601.0,-3363.0,107.0,-431.0
250,-198.0,-1087.0,999.0,-185.0,-42.0,22.0
251,-592.0,-280.0,833.0,3299.0,165.0,306.0
252,-2.0,-685.0,559.0,1977.0,-652.0,52.0
253,333.0,-802.0,163.0,1581.0,-565.0,6.0
254,230.0,-1003.0,-47.0,1276.0,-194.0,117.0
255,103.0,-957.0,27.0,1173.0,-172.0,175.0
256,63.0,-886.0,137.0,1069.0,-195.0,101.0
257,104.0,-920.0,76.0,904.0,-126.0,-35.0
258,83.0,-963.0,0.0,789.0,76.0,-167.0
259,83.0,-947.0,70.0,757.0,117.0,-290.0
260,132.0,-905.0,116.0,717.0,87.0,-372.0
261,168.0,-933.0,67.0,613.0,140.0,-435.0
262,247.0,-952.0,86.0,151.0,130.0,-143.0
263,157.0,-999.0,73.0,120.0,200.0,-122.0
264,202.0,-993.0,61.0,126.0,151.0,-164.0
265,180.0,-942.0,130.0,172.0,140.0,-185.0
266,176.0,-953.0,121.0,105.0,151.0,-231.0
267,199.0,-973.0,92.0,40.0,160.0,-280.0
268,225.0,-963.0,96.0,32.0,169.0,-303.0
269,252.0,-950.0,97.0,26.0,176.0,-301.0
270,225.0,-960.0,110.0,7.0,214.0,-276.0
271,212.0,-962.0,110.0,4.0,215.0,-255.0
272,237.0,-968.0,81.0,-6.0,187.0,-242.0
273,262.0,-966.0,139.0,385.0,-36.0,518.0
274,-37.0,-1019.0,194.0,302.0,229.0,303.0
275,51.0,-1033.0,227.0,418.0,270.0,61.0
276,33.0,-1037.0,232.0,457.0,237.0,6.0
277,17.0,-1046.0,253.0,502.0,182.0,-48.0
278,60.0,-1084.0,239.0,537.0,94.0,-98.0
279,119.0,-1039.0,227.0,629.0,29.0,-135.0
280,126.0,-1056.0,238.0,666.0,31.0,-167.0
281,161.0,-1056.0,221.0,694.0,28.0,-201.0
282,219.0,-1131.0,219.0,701.0,37.0,-230.0
283,252.0,-1132.0,213.0,777.0,78.0,-257.0
284,92.0,-1469.0,91.0,3727.0,209.0,-559.0
285,348.0,-1193.0,-152.0,3872.0,107.0,-395.0
286,451.0,-924.0,-202.0,3835.0,148.0,-152.0
287,601.0,-946.0,-109.0,3359.0,18.0,62.0
288,552.0,-1120.0,23.0,3031.0,50.0,173.0
289,551.0,-1105.0,48.0,3110.0,33.0,199.0
290,626.0,-872.0,39.0,3300.0,-14.0,202.0
291,643.0,-707.0,55.0,3245.0,55.0,220.0
292,689.0,-559.0,37.0,3080.0,101.0,192.0
293,532.0,-253.0,50.0,2944.0,345.0,147.0
294,347.0,50.0,-38.0,2601.0,427.0,217.0
295,403.0,214.0,-145.0,1878.0,158.0,222.0
296,736.0,18.0,-340.0,882.0,-126.0,122.0
297,1313.0,34.0,-692.0,217.0,-96.0,19.0
298,135.0,-916.0,6.0,-3414.0,32.0,294.0
299,149.0,-940.0,59.0,-3497.0,-30.0,276.0
300,149.0,-1099.0,79.0,-3649.0,-67.0,267.0
301,107.0,-1204.0,106.0,-3670.0,-83.0,231.0
302,-13.0,-1276.0,143.0,-3661.0,-108.0,157.0
303,-84.0,-1442.0,212.0,-3677.0,-531.0,6.0
304,-118.0,-1494.0,252.0,-3644.0,-718.0,-57.0
305,-127.0,-1541.0,280.0,-3601.0,-917.0,-90.0
306,-79.0,-1544.0,283.0,-3535.0,-1115.0,-109.0
307,2.0,-1571.0,277.0,-3499.0,-1245.0,-128.0
308,103.0,-1608.0,290.0,-3471.0,-1278.0,-138.0
309,148.0,-1627.0,337.0,-3421.0,-1184.0,-140.0
310,197.0,-1650.0,381.0,-3372.0,-1015.0,-127.0
311,263.0,-1700.0,424.0,-3334.0,-783.0,-77.0
312,-22.0,-1238.0,873.0,-831.0,318.0,-233.0
313,5.0,-1109.0,750.0,-533.0,354.0,-172.0
314,-34.0,-1040.0,634.0,-358.0,394.0,-166.0
315,-69.0,-1043.0,544.0,-251.0,372.0,-155.0
316,-124.0,-1072.0,495.0,-121.0,323.0,-122.0
317,-147.0,-1067.0,471.0,44.0,219.0,-96.0
318,-116.0,-1079.0,449.0,196.0,67.0,-81.0
319,-83.0,-1120.0,433.0,355.0,-67.0,-75.0
320,-33.0,-1111.0,417.0,562.0,-192.0,-101.0
321,-46.0,-1284.0,477.0,769.0,-277.0,-145.0
322,-34.0,-1464.0,502.0,1247.0,-390.0,-133.0
323,60.0,-1171.0,576.0,2149.0,-456.0,-149.0
324,75.0,-725.0,618.0,2576.0,-314.0,-163.0
325,86.0,-847.0,471.0,2206.0,-197.0,-191.0
326,547.0,-1959.0,-1778.0,1201.0,510.0,-500.0
327,199.0,-907.0,90.0,765.0,92.0,-233.0
328,210.0,-961.0,124.0,291.0,59.0,84.0
329,225.0,-961.0,123.0,283.0,40.0,108.0
330,189.0,-951.0,145.0,283.0,62.0,132.0
331,182.0,-964.0,133.0,258.0,55.0,134.0
332,179.0,-982.0,123.0,243.0,52.0,129.0
333,197.0,-982.0,118.0,250.0,45.0,130.0
334,218.0,-977.0,116.0,263.0,39.0,157.0
335,220.0,-963.0,134.0,285.0,43.0,200.0
336,207.0,-940.0,158.0,289.0,48.0,237.0
337,186.0,-946.0,159.0,257.0,56.0,251.0
338,179.0,-954.0,159.0,220.0,75.0,239.0
339,208.0,-970.0,152.0,143.0,193.0,93.0
340,186.0,-1012.0,176.0,153.0,206.0,-43.0
341,177.0,-1014.0,188.0,170.0,209.0,-25.0
342,170.0,-1005.0,194.0,184.0,211.0,-14.0
343,127.0,-991.0,207.0,210.0,226.0,-5.0
344,132.0,-1033.0,194.0,210.0,216.0,-7.0
345,157.0,-1035.0,182.0,256.0,185.0,-12.0
346,177.0,-1028.0,191.0,314.0,158.0,-3.0
347,158.0,-1038.0,212.0,364.0,159.0,15.0
348,154.0,-1083.0,207.0,401.0,145.0,21.0
349,181.0,-1098.0,201.0,472.0,121.0,23.0
350,155.0,-1087.0,210.0,557.0,134.0,35.0
351,350.0,-1770.0,213.0,1649.0,1047.0,-450.0
352,243.0,180.0,-610.0,-48.0,823.0,386.0
353,-147.0,-192.0,-529.0,-906.0,885.0,638.0
354,-30.0,-475.0,-484.0,-1316.0,362.0,751.0
355,-45.0,-419.0,-428.0,-1209.0,251.0,667.0
356,-130.0,-215.0,-381.0,-1170.0,257.0,549.0
357,-153.0,-180.0,-374.0,-1490.0,127.0,506.0
358,-141.0,-205.0,-396.0,-1862.0,-26.0,517.0
359,-97.0,-171.0,-416.0,-2178.0,-198.0,548.0
360,-25.0,-185.0,-436.0,-2591.0,-394.0,548.0
361,113.0,-1588.0,353.0,-3169.0,-606.0,-178.0
362,158.0,-1518.0,358.0,-3110.0,-669.0,-246.0
363,248.0,-1535.0,365.0,-3174.0,-681.0,-264.0
364,314.0,-1630.0,388.0,-3254.0,-584.0,-263.0
365,294.0,-1733.0,454.0,-3250.0,-368.0,-271.0
366,254.0,-1787.0,506.0,-3140.0,-144.0,-277.0
367,110.0,-1769.0,557.0,-2958.0,92.0,-276.0
368,-96.0,-1691.0,603.0,-2772.0,256.0,-244.0
369,-180.0,-1678.0,634.0,-2672.0,218.0,-164.0
370,-18.0,-1714.0,628.0,-2584.0,11.0,-58.0
371,201.0,-1644.0,704.0,-2368.0,-139.0,-37.0
372,271.0,-1433.0,953.0,-1890.0,-77.0,-259.0
373,513.0,-801.0,55.0,1160.0,99.0,-622.0
374,94.0,-1124.0,-209.0,818.0,637.0,-477.0
375,69.0,-1099.0,-3.0,982.0,64.0,-426.0
376,131.0,-656.0,279.0,1279.0,-184.0,-446.0
377,333.0,-749.0,133.0,900.0,-80.0,-533.0
378,293.0,-953.0,73.0,636.0,309.0,-571.0
379,176.0,-902.0,168.0,640.0,460.0,-528.0
380,261.0,-886.0,155.0,540.0,249.0,-472.0
381,221.0,-943.0,125.0,395.0,239.0,-414.0
382,176.0,-937.0,141.0,339.0,243.0,-401.0
383,131.0,-968.0,130.0,275.0,195.0,-419.0
384,208.0,-968.0,103.0,235.0,117.0,-447.0
385,271.0,-955.0,89.0,213.0,98.0,-422.0
386,288.0,-947.0,94.0,199.0,110.0,-347.0
387,288.0,-928.0,118.0,196.0,96.0,-263.0
388,231.0,-954.0,107.0,148.0,66.0,-178.0
389,229.0,-975.0,134.0,-10.0,122.0,-56.0
390,229.0,-977.0,128.0,11.0,132.0,-38.0
391,206.0,-977.0,140.0,37.0,151.0,-24.0
392,210.0,-960.0,144.0,64.0,143.0,-20.0
393,221.0,-968.0,125.0,63.0,143.0,-10.0
394,237.0,-971.0,126.0,87.0,137.0,18.0
395,222.0,-969.0,113.0,116.0,154.0,56.0
396,237.0,-955.0,149.0,147.0,125.0,88.0
397,210.0,-939.0,161.0,155.0,135.0,118.0
398,193.0,-960.0,148.0,124.0,144.0,131.0
399,187.0,-955.0,159.0,132.0,127.0,131.0
400,201.0,-956.0,151.0,123.0,126.0,129.0
401,159.0,-987.0,183.0,153.0,241.0,58.0
402,173.0,-999.0,186.0,164.0,211.0,57.0
403,139.0,-999.0,189.0,189.0,227.0,59.0
404,119.0,-991.0,196.0,224.0,209.0,51.0
405,145.0,-1021.0,178.0,244.0,151.0,39.0
406,156.0,-1017.0,183.0,291.0,113.0,28.0
407,177.0,-1020.0,191.0,345.0,99.0,43.0
408,210.0,-1056.0,186.0,367.0,84.0,55.0
409,219.0,-1099.0,179.0,426.0,98.0,68.0
410,245.0,-1143.0,168.0,500.0,123.0,74.0
411,232.0,-1165.0,189.0,607.0,168.0,72.0
412,-179.0,-1959.0,534.0,2639.0,604.0,-609.0
413,579.0,-51.0,-349.0,2321.0,-551.0,614.0
414,455.0,88.0,-371.0,1721.0,-308.0,545.0
415,736.0,90.0,-710.0,954.0,-373.0,493.0
416,875.0,227.0,-804.0,235.0,29.0,474.0
417,261.0,13.0,-647.0,-606.0,901.0,657.0
418,242.0,-471.0,-604.0,-1391.0,775.0,732.0
419,182.0,-341.0,-559.0,-1225.0,849.0,679.0
420,10.0,54.0,-501.0,-1115.0,1000.0,656.0
421,20.0,76.0,-542.0,-1686.0,861.0,686.0
422,125.0,-166.0,-589.0,-2338.0,727.0,687.0
423,109.0,-1668.0,482.0,-3617.0,-512.0,-264.0
424,39.0,-1433.0,647.0,-2711.0,204.0,221.0
425,110.0,-1557.0,561.0,-2649.0,255.0,177.0
426,19.0,-1408.0,648.0,-2397.0,276.0,44.0
427,-125.0,-1449.0,725.0,-2243.0,163.0,-109.0
428,-298.0,-1417.0,819.0,-2009.0,-34.0,-249.0
429,-370.0,-1344.0,928.0,-1754.0,-330.0,-327.0
430,-148.0,-1284.0,1012.0,-1518.0,-735.0,-322.0
431,98.0,-1247.0,1080.0,-1266.0,-933.0,-264.0
432,237.0,-1231.0,1098.0,-981.0,-884.0,-184.0
433,283.0,-1150.0,1095.0,-651.0,-700.0,-109.0
434,229.0,-1095.0,1066.0,-366.0,-470.0,-52.0
435,149.0,-954.0,-68.0,1575.0,-28.0,-655.0
436,322.0,-903.0,113.0,336.0,121.0,-180.0
437,281.0,-926.0,99.0,298.0,134.0,-91.0
438,299.0,-946.0,69.0,280.0,100.0,-17.0
439,298.0,-951.0,72.0,298.0,80.0,77.0
440,253.0,-933.0,113.0,346.0,61.0,168.0
441,244.0,-954.0,99.0,342.0,14.0,220.0