sequence,AccelerometerX,AccelerometerY,AccelerometerZ,GyroscopeX,GyroscopeY,GyroscopeZ
0,-45.0,-977.0,186.0,-12.0,111.0,-67.0
1,-37.0,-981.0,186.0,-12.0,99.0,-71.0
2,-32.0,-979.0,186.0,-11.0,93.0,-67.0
3,-36.0,-978.0,185.0,-9.0,90.0,-66.0
4,-34.0,-980.0,185.0,-6.0,83.0,-65.0
5,-38.0,-975.0,190.0,-4.0,78.0,-65.0
6,-34.0,-979.0,186.0,-7.0,74.0,-68.0
7,-28.0,-980.0,184.0,-8.0,73.0,-70.0
8,-35.0,-978.0,186.0,-7.0,75.0,-71.0
9,-13.0,-976.0,187.0,-3.0,33.0,-104.0
10,-16.0,-977.0,187.0,-2.0,34.0,-103.0
11,-15.0,-980.0,186.0,0.0,32.0,-103.0
12,-20.0,-981.0,182.0,2.0,36.0,-107.0
13,-25.0,-978.0,181.0,9.0,36.0,-114.0
14,-23.0,-971.0,195.0,17.0,31.0,-122.0
15,-4.0,-969.0,193.0,11.0,23.0,-124.0
16,0.0,-983.0,180.0,2.0,29.0,-118.0
17,-7.0,-978.0,187.0,8.0,27.0,-113.0
18,8.0,-975.0,192.0,32.0,0.0,-212.0
19,42.0,-966.0,202.0,55.0,37.0,-205.0
20,43.0,-970.0,197.0,36.0,38.0,-201.0
21,44.0,-969.0,203.0,27.0,32.0,-196.0
22,42.0,-967.0,202.0,16.0,30.0,-193.0
23,38.0,-978.0,196.0,3.0,28.0,-193.0
24,58.0,-973.0,201.0,0.0,12.0,-187.0
25,82.0,-970.0,198.0,-14.0,6.0,-169.0
26,76.0,-974.0,197.0,-23.0,17.0,-143.0
27,67.0,-1018.0,141.0,-68.0,26.0,-42.0
28,73.0,-987.0,172.0,16.0,14.0,-28.0
29,75.0,-977.0,183.0,20.0,11.0,-14.0
30,78.0,-967.0,194.0,22.0,6.0,3.0
31,75.0,-975.0,189.0,13.0,8.0,14.0
32,74.0,-980.0,183.0,11.0,12.0,23.0
33,84.0,-977.0,184.0,19.0,15.0,29.0
34,77.0,-973.0,190.0,22.0,27.0,38.0
35,72.0,-975.0,190.0,19.0,38.0,41.0
36,67.0,-973.0,191.0,19.0,47.0,41.0
37,57.0,-990.0,182.0,20.0,59.0,34.0
38,69.0,-990.0,170.0,37.0,68.0,22.0
39,24.0,-989.0,205.0,96.0,238.0,81.0
40,40.0,-1003.0,201.0,98.0,210.0,78.0
41,47.0,-1020.0,187.0,107.0,197.0,84.0
42,52.0,-1010.0,200.0,136.0,183.0,98.0
43,61.0,-1002.0,208.0,157.0,174.0,120.0
44,73.0,-1001.0,224.0,169.0,173.0,150.0
45,65.0,-1037.0,211.0,163.0,196.0,179.0
46,-13.0,-1096.0,192.0,166.0,227.0,197.0
47,-3.0,-1111.0,229.0,194.0,178.0,199.0
48,-192.0,-995.0,286.0,1100.0,68.0,489.0
49,-179.0,-1345.0,225.0,1017.0,-20.0,498.0
50,7.0,-1394.0,262.0,1117.0,-161.0,519.0
51,33.0,-1347.0,282.0,1234.0,-96.0,521.0
52,59.0,-1439.0,286.0,1189.0,-43.0,403.0
53,45.0,-1571.0,282.0,1197.0,-55.0,229.0
54,67.0,-1573.0,287.0,1334.0,-58.0,179.0
55,106.0,-1564.0,281.0,1464.0,-70.0,145.0
56,142.0,-1550.0,263.0,1595.0,-54.0,105.0
57,-194.0,-849.0,137.0,2684.0,162.0,-148.0
58,-97.0,-630.0,-465.0,-1395.0,1441.0,281.0
59,393.0,-968.0,-101.0,-3298.0,-79.0,55.0
60,233.0,-1067.0,-13.0,-3279.0,121.0,-4.0
61,21.0,-1152.0,67.0,-3254.0,208.0,-49.0
62,-160.0,-1231.0,152.0,-3250.0,130.0,-61.0
63,-189.0,-1320.0,223.0,-3261.0,-100.0,-61.0
64,-161.0,-1439.0,280.0,-3269.0,-345.0,-72.0
65,-62.0,-1509.0,319.0,-3213.0,-602.0,-91.0
66,75.0,-1541.0,342.0,-3121.0,-804.0,-103.0
67,193.0,-1551.0,344.0,-3025.0,-902.0,-116.0
68,276.0,-1500.0,339.0,-2937.0,-909.0,-122.0
69,323.0,-1507.0,333.0,-2922.0,-858.0,-137.0
70,329.0,-1518.0,339.0,-2907.0,-754.0,-164.0
71,180.0,-1596.0,357.0,-2876.0,-582.0,-190.0
72,30.0,-1669.0,388.0,-2773.0,-469.0,-196.0
73,-110.0,-1665.0,414.0,-2603.0,-416.0,-183.0
74,-93.0,-1285.0,666.0,-1157.0,988.0,-406.0
75,-162.0,-1171.0,650.0,-902.0,1026.0,-418.0
76,-290.0,-979.0,606.0,-701.0,1017.0,-404.0
77,-406.0,-905.0,536.0,-676.0,900.0,-370.0
78,-362.0,-1022.0,471.0,-434.0,161.0,-198.0
79,-367.0,-963.0,472.0,-290.0,-21.0,-180.0
80,-442.0,-1009.0,471.0,-213.0,-186.0,-161.0
81,-481.0,-1009.0,487.0,-72.0,-401.0,-114.0
82,-362.0,-997.0,488.0,85.0,-658.0,-54.0
83,-295.0,-973.0,507.0,228.0,-782.0,7.0
84,-157.0,-1004.0,534.0,334.0,-845.0,52.0
85,-156.0,-1061.0,596.0,465.0,-771.0,87.0
86,-273.0,-1412.0,678.0,635.0,-686.0,121.0
87,-72.0,-1004.0,-197.0,1546.0,359.0,-129.0
88,-47.0,-966.0,145.0,356.0,5.0,-102.0
89,-38.0,-973.0,197.0,371.0,169.0,-397.0
90,-29.0,-946.0,193.0,356.0,150.0,-421.0
91,8.0,-951.0,187.0,293.0,79.0,-399.0
92,38.0,-940.0,201.0,234.0,16.0,-335.0
93,97.0,-968.0,173.0,154.0,-53.0,-272.0
94,91.0,-946.0,218.0,134.0,-36.0,-215.0
95,85.0,-950.0,217.0,94.0,-23.0,-184.0
96,49.0,-982.0,195.0,48.0,30.0,-179.0
97,40.0,-1001.0,181.0,37.0,58.0,-199.0
98,112.0,-963.0,211.0,35.0,52.0,-108.0
99,125.0,-951.0,219.0,29.0,70.0,-71.0
100,140.0,-1003.0,187.0,11.0,86.0,-15.0
101,131.0,-1011.0,195.0,49.0,100.0,39.0
102,97.0,-959.0,233.0,108.0,102.0,90.0
103,98.0,-971.0,220.0,98.0,110.0,114.0
104,30.0,-981.0,210.0,105.0,136.0,126.0
105,41.0,-973.0,223.0,117.0,112.0,109.0
106,67.0,-964.0,234.0,119.0,85.0,97.0
107,76.0,-975.0,235.0,109.0,93.0,99.0
108,40.0,-974.0,237.0,104.0,118.0,100.0
109,62.0,-957.0,257.0,180.0,215.0,92.0
110,-51.0,-1141.0,284.0,372.0,160.0,208.0
111,-73.0,-1063.0,290.0,827.0,-93.0,372.0
112,-15.0,-1111.0,309.0,847.0,-133.0,420.0
113,-21.0,-1174.0,313.0,895.0,-91.0,454.0
114,-32.0,-1186.0,332.0,984.0,-76.0,473.0
115,-61.0,-1226.0,340.0,1044.0,-62.0,467.0
116,-114.0,-1313.0,353.0,1091.0,-58.0,432.0
117,-132.0,-1432.0,397.0,1155.0,-104.0,397.0
118,155.0,-1416.0,378.0,1278.0,-254.0,357.0
119,161.0,-1451.0,362.0,1371.0,-172.0,274.0
120,38.0,-1542.0,367.0,1469.0,-84.0,214.0
121,29.0,-1545.0,349.0,1621.0,-124.0,200.0
122,-17.0,-985.0,181.0,3441.0,1159.0,-273.0
123,46.0,-402.0,-529.0,-2074.0,-224.0,170.0
124,94.0,-286.0,-521.0,-2099.0,-304.0,126.0
125,92.0,-263.0,-505.0,-2307.0,-336.0,68.0
126,95.0,-236.0,-462.0,-2551.0,-380.0,26.0
127,117.0,-317.0,-421.0,-2879.0,-465.0,0.0
128,182.0,-519.0,-373.0,-3216.0,-551.0,-55.0
129,291.0,-720.0,-281.0,-3408.0,-619.0,-122.0
130,277.0,-849.0,-144.0,-3434.0,-558.0,-165.0
131,205.0,-907.0,-39.0,-3408.0,-492.0,-197.0
132,167.0,-951.0,2.0,-3414.0,-469.0,-246.0
133,181.0,-1005.0,25.0,-3462.0,-475.0,-313.0
134,152.0,-1087.0,73.0,-3534.0,-439.0,-364.0
135,167.0,-1566.0,443.0,-3624.0,-499.0,-496.0
136,-280.0,-1463.0,577.0,-2402.0,-197.0,-312.0
137,-315.0,-1258.0,934.0,-1106.0,-90.0,-434.0
138,-238.0,-1213.0,983.0,-830.0,-143.0,-387.0
139,-113.0,-1168.0,1011.0,-582.0,-108.0,-352.0
140,-31.0,-1114.0,1040.0,-356.0,34.0,-325.0
141,-20.0,-1030.0,1048.0,-146.0,225.0,-309.0
142,-84.0,-1041.0,1030.0,-14.0,396.0,-294.0
143,-202.0,-1089.0,990.0,132.0,497.0,-257.0
144,-440.0,-1445.0,995.0,397.0,514.0,-68.0
145,-594.0,-1390.0,1028.0,1172.0,320.0,270.0
146,-669.0,-918.0,1019.0,1912.0,9.0,356.0
147,-523.0,-906.0,877.0,1760.0,-385.0,254.0
148,-55.0,-984.0,483.0,1452.0,-706.0,182.0
149,479.0,-1380.0,-149.0,1231.0,-679.0,167.0
150,1001.0,-1884.0,-1291.0,868.0,-337.0,226.0
151,682.0,-1959.0,-1944.0,1064.0,390.0,584.0
152,50.0,-999.0,104.0,348.0,74.0,167.0
153,-15.0,-971.0,131.0,348.0,159.0,96.0
154,-10.0,-954.0,164.0,329.0,172.0,-13.0
155,2.0,-957.0,162.0,280.0,182.0,-99.0
156,10.0,-999.0,128.0,209.0,190.0,-154.0
157,36.0,-987.0,140.0,187.0,175.0,-186.0
158,50.0,-982.0,135.0,154.0,161.0,-191.0
159,59.0,-1000.0,120.0,120.0,149.0,-176.0
160,67.0,-997.0,129.0,132.0,127.0,-155.0
161,63.0,-992.0,150.0,60.0,115.0,-92.0
162,93.0,-1014.0,133.0,58.0,110.0,-44.0
163,101.0,-987.0,158.0,166.0,145.0,46.0
164,79.0,-973.0,174.0,187.0,153.0,93.0
165,39.0,-979.0,179.0,189.0,172.0,119.0
166,34.0,-987.0,186.0,194.0,162.0,113.0
167,52.0,-984.0,190.0,201.0,151.0,107.0
168,59.0,-993.0,189.0,199.0,162.0,109.0
169,68.0,-1009.0,184.0,198.0,184.0,115.0
170,80.0,-991.0,199.0,218.0,208.0,125.0
171,81.0,-986.0,212.0,228.0,255.0,125.0
172,131.0,-1524.0,266.0,1475.0,-201.0,857.0
173,50.0,-1696.0,330.0,1551.0,-52.0,777.0
174,25.0,-1665.0,347.0,1717.0,-10.0,674.0
175,91.0,-1713.0,325.0,1790.0,-100.0,391.0
176,75.0,-1817.0,284.0,1875.0,-102.0,202.0
177,144.0,-1782.0,226.0,2067.0,-93.0,135.0
178,212.0,-1775.0,138.0,2211.0,-61.0,72.0
179,237.0,-1756.0,69.0,2360.0,8.0,2.0
180,344.0,-1751.0,44.0,2499.0,62.0,-46.0
181,402.0,-1698.0,-12.0,2659.0,203.0,-83.0
182,443.0,-1719.0,-4.0,2770.0,373.0,-122.0
183,-202.0,-154.0,-428.0,-978.0,403.0,79.0
184,60.0,-470.0,-370.0,-751.0,291.0,-145.0
185,53.0,-293.0,-397.0,-805.0,182.0,-224.0
186,2.0,-243.0,-417.0,-1038.0,98.0,-299.0
187,-28.0,-109.0,-441.0,-1220.0,-3.0,-357.0
188,-42.0,-150.0,-467.0,-1590.0,-144.0,-409.0
189,-54.0,-217.0,-486.0,-1931.0,-283.0,-439.0
190,93.0,-228.0,-453.0,-2205.0,-485.0,-419.0
191,203.0,-235.0,-422.0,-2514.0,-494.0,-413.0
192,-90.0,-1232.0,129.0,-3423.0,-661.0,-533.0
193,-63.0,-1330.0,205.0,-3412.0,-740.0,-549.0
194,-21.0,-1407.0,252.0,-3361.0,-814.0,-553.0
195,44.0,-1510.0,273.0,-3281.0,-873.0,-553.0
196,181.0,-1535.0,283.0,-3154.0,-908.0,-562.0
197,266.0,-1567.0,301.0,-3054.0,-841.0,-578.0
198,235.0,-1644.0,346.0,-2975.0,-694.0,-589.0
199,158.0,-1615.0,412.0,-2855.0,-556.0,-596.0
200,-223.0,-1675.0,613.0,-2693.0,-375.0,-464.0
201,-302.0,-1650.0,602.0,-2562.0,-361.0,-379.0
202,-256.0,-1627.0,598.0,-2436.0,-458.0,-292.0
203,-113.0,-1643.0,595.0,-2303.0,-562.0,-219.0
204,89.0,-1597.0,620.0,-2101.0,-627.0,-181.0
205,253.0,-1517.0,653.0,-1889.0,-577.0,-194.0
206,117.0,-807.0,455.0,1167.0,-852.0,-339.0
207,429.0,-886.0,45.0,915.0,-866.0,-486.0
208,1056.0,-1505.0,-707.0,447.0,-845.0,-339.0
209,374.0,-1959.0,-1795.0,1963.0,661.0,857.0
210,-418.0,-1681.0,-1158.0,3378.0,1040.0,749.0
211,-784.0,-68.0,490.0,4433.0,155.0,488.0
212,-342.0,-647.0,971.0,2285.0,-1007.0,96.0
213,489.0,-773.0,920.0,1496.0,-1274.0,-75.0
214,403.0,-690.0,449.0,1287.0,-465.0,129.0
215,144.0,-1066.0,-113.0,823.0,34.0,215.0
216,-30.0,-1169.0,-325.0,902.0,151.0,198.0
217,-156.0,-1136.0,-241.0,1185.0,97.0,68.0
218,-52.0,-1000.0,-60.0,1424.0,-53.0,-104.0
219,69.0,-852.0,139.0,1497.0,-103.0,-205.0
220,101.0,-974.0,183.0,201.0,93.0,-171.0
221,109.0,-997.0,186.0,194.0,95.0,-193.0
222,95.0,-1009.0,174.0,200.0,154.0,-244.0
223,105.0,-1000.0,208.0,241.0,208.0,-326.0
224,93.0,-980.0,187.0,267.0,293.0,-408.0
225,86.0,-1016.0,120.0,245.0,354.0,-453.0
226,172.0,-993.0,185.0,280.0,239.0,-407.0
227,153.0,-922.0,200.0,293.0,218.0,-308.0
228,110.0,-938.0,209.0,188.0,142.0,28.0
229,138.0,-956.0,213.0,166.0,110.0,26.0
230,118.0,-964.0,191.0,156.0,105.0,54.0
231,184.0,-957.0,197.0,154.0,47.0,103.0
232,140.0,-971.0,240.0,129.0,70.0,263.0
233,118.0,-981.0,220.0,123.0,102.0,261.0
234,99.0,-996.0,218.0,126.0,126.0,244.0
235,148.0,-964.0,231.0,141.0,114.0,235.0
236,125.0,-965.0,235.0,130.0,144.0,250.0
237,123.0,-968.0,235.0,121.0,161.0,256.0
238,79.0,-959.0,274.0,308.0,121.0,49.0
239,-15.0,-967.0,289.0,322.0,164.0,19.0
240,32.0,-976.0,288.0,351.0,105.0,-24.0
241,45.0,-982.0,289.0,381.0,90.0,-49.0
242,34.0,-1010.0,289.0,385.0,82.0,-62.0
243,111.0,-1020.0,280.0,403.0,32.0,-52.0
244,136.0,-1002.0,285.0,446.0,43.0,-18.0
245,141.0,-1004.0,290.0,465.0,79.0,9.0
246,146.0,-1016.0,297.0,485.0,106.0,29.0
247,110.0,-1023.0,298.0,521.0,144.0,39.0
248,68.0,-1043.0,309.0,550.0,166.0,27.0
249,62.0,-1055.0,317.0,592.0,157.0,17.0
250,77.0,-1073.0,323.0,631.0,144.0,4.0
251,98.0,-1106.0,329.0,678.0,140.0,1.0
252,115.0,-1110.0,339.0,744.0,140.0,-12.0
253,332.0,-1917.0,320.0,2260.0,112.0,-510.0
254,-5.0,-490.0,51.0,3540.0,1587.0,-796.0
255,-121.0,-346.0,-29.0,3308.0,1546.0,-759.0
256,-281.0,-109.0,-29.0,3008.0,1421.0,-673.0
257,-347.0,280.0,-52.0,2581.0,1280.0,-482.0
258,293.0,822.0,-718.0,1902.0,938.0,-143.0
259,-459.0,1296.0,-782.0,759.0,2052.0,43.0
260,-1060.0,483.0,-844.0,-2183.0,1827.0,362.0
261,-529.0,-1347.0,-266.0,-4610.0,155.0,713.0
262,-337.0,-1180.0,-830.0,-2732.0,93.0,447.0
263,-533.0,-184.0,-423.0,-1200.0,223.0,274.0
264,-430.0,180.0,-534.0,-1699.0,-298.0,231.0
265,-277.0,-1593.0,231.0,-4300.0,-745.0,366.0
266,-305.0,-1868.0,725.0,-2600.0,126.0,-35.0
267,-242.0,-1407.0,867.0,-2157.0,-112.0,48.0
268,23.0,-1641.0,903.0,-2580.0,-302.0,-37.0
269,417.0,-1420.0,962.0,-2537.0,-333.0,-75.0
270,597.0,-1490.0,1158.0,-2540.0,-46.0,-128.0
271,675.0,-1595.0,1275.0,-2411.0,315.0,-278.0
272,287.0,-1317.0,1550.0,-1905.0,828.0,-451.0
273,-252.0,-1191.0,1781.0,-1596.0,1095.0,-531.0
274,-717.0,-1083.0,1946.0,-1310.0,1034.0,-458.0
275,-813.0,-1361.0,1959.0,-1178.0,641.0,-354.0
276,-48.0,-1037.0,11.0,1127.0,396.0,166.0
277,-211.0,-1063.0,135.0,1053.0,251.0,75.0
278,-155.0,-904.0,115.0,1052.0,74.0,-91.0
279,60.0,-989.0,155.0,873.0,-185.0,-114.0
280,66.0,-843.0,276.0,805.0,-148.0,-66.0
281,1.0,-826.0,271.0,619.0,-58.0,-49.0
282,1.0,-905.0,205.0,442.0,-38.0,-63.0
283,12.0,-938.0,190.0,349.0,-52.0,-65.0
284,0.0,-972.0,146.0,274.0,-35.0,-70.0
285,1.0,-996.0,131.0,240.0,-7.0,-94.0
286,8.0,-978.0,151.0,255.0,6.0,-121.0
287,79.0,-993.0,153.0,63.0,93.0,-130.0
288,96.0,-992.0,188.0,200.0,146.0,-73.0
289,25.0,-978.0,224.0,154.0,245.0,-2.0
290,62.0,-974.0,225.0,156.0,205.0,-21.0
291,59.0,-976.0,235.0,155.0,195.0,-27.0
292,82.0,-976.0,236.0,149.0,195.0,-31.0
293,87.0,-976.0,232.0,147.0,218.0,-30.0
294,68.0,-1003.0,229.0,143.0,249.0,-27.0
295,103.0,-993.0,240.0,160.0,244.0,-20.0
296,128.0,-981.0,236.0,171.0,257.0,10.0
297,80.0,-999.0,233.0,181.0,309.0,42.0
298,62.0,-1022.0,235.0,200.0,317.0,55.0
299,84.0,-1015.0,238.0,235.0,296.0,63.0
300,154.0,-1380.0,362.0,1365.0,153.0,67.0
301,59.0,-1457.0,379.0,1434.0,210.0,-8.0
302,-12.0,-1523.0,404.0,1536.0,217.0,-92.0
303,-6.0,-1600.0,396.0,1659.0,158.0,-146.0
304,111.0,-1609.0,332.0,1806.0,83.0,-203.0
305,215.0,-1616.0,298.0,1940.0,76.0,-273.0
306,264.0,-1660.0,299.0,2067.0,141.0,-373.0
307,359.0,-1688.0,290.0,2223.0,186.0,-464.0
308,395.0,-1705.0,213.0,2392.0,315.0,-551.0
309,-81.0,-327.0,-43.0,3172.0,481.0,85.0
310,-23.0,-355.0,-433.0,-3225.0,-447.0,631.0
311,52.0,-499.0,-389.0,-3390.0,-506.0,667.0
312,126.0,-533.0,-286.0,-3418.0,-506.0,666.0
313,247.0,-522.0,-227.0,-3481.0,-473.0,643.0
314,243.0,-513.0,-162.0,-3628.0,-290.0,604.0
315,176.0,-687.0,-107.0,-3912.0,-129.0,571.0
316,145.0,-920.0,-50.0,-4098.0,-76.0,532.0
317,119.0,-1076.0,39.0,-4092.0,-71.0,496.0
318,48.0,-1163.0,163.0,-4013.0,-98.0,445.0
319,-28.0,-1206.0,255.0,-3935.0,-188.0,383.0
320,290.0,-1586.0,591.0,-2801.0,641.0,55.0
321,-225.0,-1156.0,1256.0,-592.0,-491.0,-233.0
322,-94.0,-1108.0,1290.0,-319.0,-455.0,-173.0
323,15.0,-1097.0,1289.0,-89.0,-334.0,-91.0
324,21.0,-1086.0,1252.0,155.0,-148.0,-47.0
325,-93.0,-1093.0,1183.0,394.0,11.0,-49.0
326,-242.0,-1112.0,1089.0,629.0,41.0,-36.0
327,-450.0,-1422.0,995.0,875.0,-83.0,79.0
328,-418.0,-548.0,769.0,1539.0,-437.0,364.0
329,-217.0,-593.0,416.0,1043.0,-711.0,263.0
330,-163.0,-1083.0,-155.0,316.0,-675.0,26.0
331,6.0,-1675.0,-986.0,186.0,-679.0,-210.0
332,-11.0,-861.0,258.0,796.0,30.0,-128.0
333,70.0,-973.0,186.0,296.0,-20.0,-209.0
334,48.0,-969.0,192.0,254.0,3.0,-188.0
335,49.0,-979.0,180.0,212.0,17.0,-180.0
336,71.0,-953.0,208.0,205.0,7.0,-171.0
337,73.0,-955.0,199.0,172.0,26.0,-165.0
338,31.0,-976.0,203.0,142.0,66.0,-172.0
339,38.0,-991.0,183.0,124.0,67.0,-203.0
340,79.0,-973.0,193.0,135.0,58.0,-224.0
341,43.0,-973.0,181.0,125.0,92.0,-218.0
342,71.0,-971.0,183.0,112.0,75.0,-202.0
343,119.0,-975.0,181.0,94.0,38.0,-163.0
344,116.0,-952.0,219.0,184.0,136.0,32.0
345,61.0,-988.0,242.0,101.0,310.0,100.0
346,1.0,-1022.0,247.0,104.0,356.0,103.0
347,3.0,-1054.0,237.0,124.0,344.0,90.0
348,32.0,-1049.0,211.0,166.0,320.0,84.0
349,81.0,-1061.0,220.0,215.0,286.0,99.0
350,47.0,-1061.0,247.0,261.0,292.0,121.0
351,2.0,-1044.0,248.0,307.0,302.0,127.0
352,-78.0,-1065.0,256.0,340.0,282.0,115.0
353,-111.0,-1029.0,268.0,410.0,218.0,89.0
354,289.0,-1886.0,289.0,1865.0,169.0,-189.0
355,450.0,-1948.0,281.0,2055.0,177.0,-255.0
356,679.0,-1958.0,71.0,2326.0,262.0,-370.0
357,515.0,-1881.0,45.0,2749.0,600.0,-471.0
358,450.0,-1951.0,36.0,2865.0,780.0,-563.0
359,380.0,-1954.0,36.0,3098.0,963.0,-628.0
360,269.0,-1858.0,-37.0,3373.0,1213.0,-666.0
361,22.0,-1703.0,-95.0,3578.0,1515.0,-688.0
362,-248.0,-1497.0,-105.0,3736.0,1629.0,-608.0
363,-183.0,-1293.0,-121.0,3833.0,1328.0,-484.0
364,-224.0,-1205.0,-6.0,3748.0,1151.0,-450.0
365,-201.0,145.0,-408.0,-1331.0,-10.0,358.0
366,-27.0,-1383.0,734.0,-2025.0,204.0,-458.0
367,-199.0,-1320.0,846.0,-1877.0,219.0,-535.0
368,-488.0,-1272.0,1038.0,-1699.0,154.0,-547.0
369,-459.0,-1231.0,1223.0,-1485.0,-206.0,-483.0
370,-313.0,-1232.0,1408.0,-1227.0,-463.0,-415.0
371,-195.0,-1215.0,1550.0,-892.0,-487.0,-369.0
372,-197.0,-1143.0,1610.0,-498.0,-327.0,-323.0
373,-254.0,-1099.0,1554.0,-144.0,-136.0,-251.0
374,-344.0,-1053.0,1414.0,173.0,-14.0,-180.0
375,-345.0,-1077.0,1224.0,421.0,-16.0,-111.0
376,-427.0,-1619.0,1135.0,663.0,-42.0,29.0
377,-227.0,-1029.0,126.0,739.0,449.0,48.0
378,13.0,-994.0,169.0,111.0,155.0,-258.0
379,29.0,-1010.0,148.0,103.0,156.0,-295.0
380,65.0,-996.0,165.0,124.0,129.0,-304.0
381,82.0,-983.0,166.0,135.0,117.0,-288.0
382,113.0,-975.0,168.0,133.0,109.0,-255.0
383,117.0,-975.0,167.0,128.0,112.0,-198.0
384,118.0,-991.0,154.0,122.0,117.0,-139.0
385,93.0,-977.0,175.0,138.0,125.0,-84.0
386,92.0,-954.0,201.0,149.0,118.0,-44.0
387,73.0,-969.0,192.0,127.0,132.0,-21.0
388,42.0,-973.0,190.0,118.0,151.0,-16.0
389,62.0,-968.0,213.0,133.0,173.0,27.0
390,76.0,-1027.0,224.0,185.0,164.0,51.0
391,69.0,-1018.0,232.0,210.0,183.0,63.0
392,33.0,-1033.0,232.0,216.0,217.0,66.0
393,14.0,-1046.0,225.0,227.0,232.0,55.0
394,17.0,-1022.0,228.0,254.0,211.0,53.0
395,38.0,-1018.0,233.0,267.0,168.0,71.0
396,29.0,-1006.0,240.0,286.0,144.0,93.0
397,-7.0,-1000.0,252.0,306.0,127.0,109.0
398,-10.0,-1015.0,260.0,319.0,71.0,115.0
399,-32.0,-1015.0,262.0,363.0,48.0,118.0
400,-44.0,-1056.0,265.0,419.0,18.0,123.0
401,19.0,-1066.0,278.0,505.0,-57.0,140.0
402,96.0,-1076.0,281.0,594.0,-85.0,184.0